#time,accel_x,accel_y,accel_z
6213.412169,-3701.029710,-9030.512492,612.876398
6213.412491,-4071.132681,-8068.244768,766.095498
6213.412812,-4293.194464,-8808.450710,919.314598
6213.413134,-3775.050304,-8512.368333,536.266849
6213.413456,-3923.091493,-8734.430116,766.095498
6213.413778,-3701.029710,-8956.491898,76.609550
6213.414100,-3701.029710,-8364.327145,536.266849
6213.414421,-3627.009116,-9178.553681,689.485948
6213.414743,-3404.947333,-8586.388927,919.314598
6213.415065,-3182.885551,-9696.697840,689.485948
6213.415387,-3701.029710,-8808.450710,459.657299
6213.415709,-3775.050304,-8882.471304,612.876398
6213.416030,-3923.091493,-9178.553681,536.266849
6213.416352,-3997.112087,-8734.430116,459.657299
6213.416674,-3775.050304,-8882.471304,229.828649
6213.416996,-3552.988522,-8586.388927,0.000000
6213.417318,-4219.173869,-8438.347739,536.266849
6213.417640,-3478.967927,-8216.285956,689.485948
6213.417961,-3997.112087,-7920.203579,612.876398
6213.418283,-3849.070898,-8882.471304,383.047749
6213.418605,-3627.009116,-8882.471304,306.438199
6213.418927,-3478.967927,-8734.430116,612.876398
6213.419249,-3997.112087,-9252.574275,1225.752797
6213.419570,-3627.009116,-8438.347739,612.876398
6213.419892,-3997.112087,-9104.533087,1072.533697
6213.420214,-3478.967927,-8882.471304,995.924147
6213.420536,-3701.029710,-8956.491898,612.876398
6213.420858,-3923.091493,-8956.491898,766.095498
6213.421179,-3775.050304,-8586.388927,459.657299
6213.421501,-3701.029710,-8808.450710,536.266849
6213.421823,-3478.967927,-8734.430116,76.609550
6213.422145,-3330.926739,-9104.533087,0.000000
6213.422467,-3404.947333,-9104.533087,229.828649
6213.422789,-3404.947333,-8586.388927,229.828649
6213.423110,-3701.029710,-8808.450710,766.095498
6213.423432,-3775.050304,-8808.450710,536.266849
6213.423754,-3849.070898,-8956.491898,459.657299
6213.424076,-3701.029710,-8734.430116,383.047749
6213.424398,-3627.009116,-8586.388927,459.657299
6213.424719,-4589.276840,-8808.450710,536.266849
6213.425041,-3775.050304,-8438.347739,1149.143247
6213.425363,-3849.070898,-8882.471304,459.657299
6213.425685,-3552.988522,-8808.450710,536.266849
6213.426007,-3775.050304,-8808.450710,919.314598
6213.426328,-3627.009116,-8882.471304,306.438199
6213.426650,-3997.112087,-9030.512492,306.438199
6213.426972,-3701.029710,-9178.553681,459.657299
6213.427294,-3627.009116,-8734.430116,306.438199
6213.427616,-3997.112087,-8586.388927,766.095498
6213.427938,-3627.009116,-8808.450710,383.047749
6213.428259,-3627.009116,-9178.553681,536.266849
6213.428581,-3775.050304,-8882.471304,306.438199
6213.428903,-3627.009116,-8882.471304,383.047749
6213.429225,-3256.906145,-9178.553681,459.657299
6213.429547,-3997.112087,-8290.306550,689.485948
6213.429868,-3478.967927,-8808.450710,1149.143247
6213.430190,-4145.153275,-8660.409521,229.828649
6213.430512,-3849.070898,-8734.430116,612.876398
6213.430834,-3849.070898,-8882.471304,612.876398
6213.431156,-3701.029710,-8512.368333,612.876398
6213.431477,-3775.050304,-9326.594869,995.924147
6213.431799,-3849.070898,-8216.285956,229.828649
6213.432121,-3997.112087,-8438.347739,383.047749
6213.432443,-3627.009116,-8660.409521,383.047749
6213.432765,-3997.112087,-8216.285956,612.876398
6213.433087,-3701.029710,-9252.574275,612.876398
6213.433408,-3775.050304,-8586.388927,689.485948
6213.433730,-3849.070898,-9030.512492,536.266849
6213.434052,-3627.009116,-8808.450710,919.314598
6213.434374,-3552.988522,-8734.430116,76.609550
6213.434696,-3627.009116,-9030.512492,-229.828649
6213.435017,-3701.029710,-8660.409521,536.266849
6213.435339,-3627.009116,-8956.491898,459.657299
6213.435661,-3849.070898,-8882.471304,383.047749
6213.435983,-3701.029710,-8734.430116,383.047749
6213.436305,-3627.009116,-8364.327145,306.438199
6213.436626,-3775.050304,-8364.327145,459.657299
6213.436948,-3552.988522,-8734.430116,689.485948
6213.437270,-3478.967927,-8882.471304,536.266849
6213.437592,-3330.926739,-9030.512492,229.828649
6213.437914,-3478.967927,-9474.636058,536.266849
6213.438236,-3330.926739,-9030.512492,689.485948
6213.438557,-3330.926739,-8882.471304,842.705048
6213.438879,-3627.009116,-8956.491898,1072.533697
6213.439201,-3627.009116,-8660.409521,1072.533697
6213.439523,-3108.864956,-8956.491898,1072.533697
6213.439845,-3256.906145,-8364.327145,612.876398
6213.440166,-3849.070898,-8808.450710,536.266849
6213.440488,-4441.235652,-8882.471304,689.485948
6213.440810,-4071.132681,-8882.471304,306.438199
6213.441132,-3701.029710,-8734.430116,306.438199
6213.441454,-3478.967927,-8734.430116,229.828649
6213.441775,-3330.926739,-8438.347739,842.705048
6213.442097,-3775.050304,-8882.471304,842.705048
6213.442419,-3552.988522,-9030.512492,1072.533697
6213.442741,-2960.823768,-8956.491898,689.485948
6213.443063,-2960.823768,-9770.718434,536.266849
6213.443385,-2960.823768,-9030.512492,306.438199
6213.443706,-2960.823768,-8956.491898,1378.971896
6213.444028,-2738.761985,-9326.594869,1149.143247
6213.444350,-2442.679609,-9104.533087,842.705048
6213.444672,-3108.864956,-9252.574275,995.924147
6213.444994,-3256.906145,-8586.388927,1302.362347
6213.445315,-2812.782580,-8956.491898,919.314598
6213.445637,-2960.823768,-8364.327145,383.047749
6213.445959,-3478.967927,-9326.594869,995.924147
6213.446281,-3256.906145,-9104.533087,1302.362347
6213.446603,-3404.947333,-8290.306550,1225.752797
6213.446924,-3552.988522,-9252.574275,1072.533697
6213.447246,-3182.885551,-8808.450710,995.924147
6213.447568,-3330.926739,-9326.594869,842.705048
6213.447890,-3849.070898,-8734.430116,1225.752797
6213.448212,-3478.967927,-8290.306550,919.314598
6213.448534,-3182.885551,-9252.574275,612.876398
6213.448855,-3108.864956,-8364.327145,1072.533697
6213.449177,-2886.803174,-9178.553681,1302.362347
6213.449499,-3552.988522,-8734.430116,1455.581446
6213.449821,-3552.988522,-8956.491898,1149.143247
6213.450143,-3627.009116,-9104.533087,766.095498
6213.450464,-3775.050304,-8660.409521,1149.143247
6213.450786,-3330.926739,-8660.409521,153.219100
6213.451108,-3552.988522,-8364.327145,842.705048
6213.451430,-3478.967927,-8512.368333,1072.533697
6213.451752,-3404.947333,-8808.450710,689.485948
6213.452073,-3552.988522,-8734.430116,842.705048
6213.452395,-3775.050304,-8808.450710,1072.533697
6213.452717,-3552.988522,-8290.306550,1149.143247
6213.453039,-3849.070898,-8142.265362,1532.190996
6213.453361,-3404.947333,-8956.491898,1072.533697
6213.453683,-3552.988522,-8586.388927,919.314598
6213.454004,-3627.009116,-8882.471304,1149.143247
6213.454326,-3849.070898,-8660.409521,766.095498
6213.454648,-3627.009116,-8512.368333,842.705048
6213.454970,-3627.009116,-8882.471304,459.657299
6213.455292,-3552.988522,-9030.512492,0.000000
6213.455613,-3701.029710,-8882.471304,229.828649
6213.455935,-3552.988522,-9400.615463,459.657299
6213.456257,-3552.988522,-8882.471304,459.657299
6213.456579,-3552.988522,-9178.553681,383.047749
6213.456901,-3478.967927,-8882.471304,306.438199
6213.457222,-3330.926739,-9178.553681,612.876398
6213.457544,-3182.885551,-9252.574275,689.485948
6213.457866,-3330.926739,-8808.450710,1302.362347
6213.458188,-3701.029710,-8734.430116,995.924147
6213.458510,-3478.967927,-9252.574275,919.314598
6213.458832,-3404.947333,-9252.574275,689.485948
6213.459153,-3404.947333,-8956.491898,536.266849
6213.459475,-3256.906145,-9104.533087,306.438199
6213.459797,-3108.864956,-9400.615463,306.438199
6213.460119,-3108.864956,-9104.533087,689.485948
6213.460441,-3330.926739,-9252.574275,229.828649
6213.460762,-3330.926739,-8956.491898,459.657299
6213.461084,-3330.926739,-9104.533087,229.828649
6213.461406,-3034.844362,-9252.574275,459.657299
6213.461728,-3330.926739,-9548.656652,689.485948
6213.462050,-3034.844362,-8956.491898,1149.143247
6213.462371,-2960.823768,-9326.594869,1838.629195
6213.462693,-3034.844362,-9030.512492,1685.410096
6213.463015,-3034.844362,-8586.388927,1225.752797
6213.463337,-2886.803174,-9474.636058,612.876398
6213.463659,-3108.864956,-8660.409521,689.485948
6213.463981,-3256.906145,-9326.594869,689.485948
6213.464302,-3478.967927,-8660.409521,383.047749
6213.464624,-3256.906145,-8290.306550,383.047749
6213.464946,-3627.009116,-9178.553681,995.924147
6213.465268,-3478.967927,-8068.244768,689.485948
6213.465590,-3627.009116,-8734.430116,842.705048
6213.465911,-3701.029710,-8438.347739,689.485948
6213.466233,-3849.070898,-8438.347739,766.095498
6213.466555,-3552.988522,-8956.491898,919.314598
6213.466877,-3849.070898,-8068.244768,995.924147
6213.467199,-3701.029710,-9104.533087,1225.752797
6213.467520,-3404.947333,-8734.430116,919.314598
6213.467842,-3552.988522,-8956.491898,995.924147
6213.468164,-3404.947333,-8956.491898,842.705048
6213.468486,-3478.967927,-8586.388927,383.047749
6213.468808,-3775.050304,-8956.491898,459.657299
6213.469130,-3701.029710,-8660.409521,612.876398
6213.469451,-3627.009116,-8364.327145,383.047749
6213.469773,-3552.988522,-8586.388927,919.314598
6213.470095,-4219.173869,-7846.182985,612.876398
6213.470417,-3478.967927,-8734.430116,1072.533697
6213.470739,-3997.112087,-8882.471304,842.705048
6213.471060,-3849.070898,-8956.491898,689.485948
6213.471382,-3701.029710,-9104.533087,689.485948
6213.471704,-3627.009116,-8586.388927,919.314598
6213.472026,-3330.926739,-9030.512492,383.047749
6213.472348,-3330.926739,-8734.430116,1225.752797
6213.472669,-3701.029710,-8882.471304,1072.533697
6213.472991,-3627.009116,-9030.512492,306.438199
6213.473313,-4071.132681,-8660.409521,689.485948
6213.473635,-4219.173869,-8586.388927,689.485948
6213.473957,-4293.194464,-8438.347739,612.876398
6213.474279,-4145.153275,-8364.327145,153.219100
6213.474600,-4515.256246,-8438.347739,0.000000
6213.474922,-4515.256246,-8364.327145,76.609550
6213.475244,-4737.318029,-8142.265362,-689.485948
6213.475566,-4589.276840,-8438.347739,-153.219100
6213.475888,-4515.256246,-9104.533087,-229.828649
6213.476209,-4293.194464,-8586.388927,76.609550
6213.476520,-4367.215058,-8586.388927,153.219100
6213.476841,-4663.297435,-8290.306550,1149.143247
6213.477163,-3997.112087,-8216.285956,766.095498
6213.477485,-4515.256246,-8586.388927,-306.438199
6213.477807,-4663.297435,-8586.388927,0.000000
6213.478128,-4441.235652,-8660.409521,-153.219100
6213.478450,-4515.256246,-8660.409521,0.000000
6213.478772,-4367.215058,-8660.409521,-536.266849
6213.479093,-4071.132681,-8068.244768,0.000000
6213.479415,-3997.112087,-9104.533087,-1225.752797
6213.479737,-4145.153275,-8438.347739,-689.485948
6213.480059,-4145.153275,-8586.388927,0.000000
6213.480380,-4071.132681,-8734.430116,-612.876398
6213.480702,-3923.091493,-8808.450710,-306.438199
6213.481024,-3849.070898,-9178.553681,-536.266849
6213.481345,-4293.194464,-8438.347739,-383.047749
6213.481667,-3923.091493,-9104.533087,0.000000
6213.481989,-3923.091493,-9252.574275,-612.876398
6213.482311,-3701.029710,-8956.491898,-306.438199
6213.482632,-3627.009116,-9400.615463,-536.266849
6213.482954,-3849.070898,-8956.491898,-229.828649
6213.483276,-3404.947333,-9252.574275,-306.438199
6213.483597,-3404.947333,-9104.533087,-383.047749
6213.483919,-3552.988522,-8956.491898,0.000000
6213.484241,-4293.194464,-8882.471304,0.000000
6213.484563,-3404.947333,-8586.388927,153.219100
6213.484884,-3701.029710,-8956.491898,0.000000
6213.485206,-3775.050304,-9178.553681,0.000000
6213.485528,-3923.091493,-8808.450710,0.000000
6213.485849,-3775.050304,-9400.615463,0.000000
6213.486171,-3627.009116,-8586.388927,-153.219100
6213.486493,-3182.885551,-9400.615463,153.219100
6213.486814,-3478.967927,-9548.656652,-153.219100
6213.487136,-3478.967927,-9104.533087,383.047749
6213.487458,-4071.132681,-9178.553681,536.266849
6213.487780,-3997.112087,-8882.471304,536.266849
6213.488101,-4071.132681,-8882.471304,766.095498
6213.488423,-4071.132681,-8512.368333,306.438199
6213.488745,-3849.070898,-8882.471304,919.314598
6213.489066,-4145.153275,-7846.182985,536.266849
6213.489388,-3923.091493,-8586.388927,536.266849
6213.489710,-3923.091493,-8882.471304,766.095498
6213.490032,-3627.009116,-8586.388927,842.705048
6213.490353,-3923.091493,-9030.512492,1225.752797
6213.490675,-3701.029710,-8364.327145,1378.971896
6213.490997,-3256.906145,-9030.512492,995.924147
6213.491318,-2960.823768,-8956.491898,459.657299
6213.491640,-3552.988522,-8364.327145,612.876398
6213.491962,-3997.112087,-9178.553681,1072.533697
6213.492284,-4219.173869,-8068.244768,766.095498
6213.492605,-4219.173869,-8438.347739,689.485948
6213.492927,-4737.318029,-8290.306550,842.705048
6213.493249,-4145.153275,-8364.327145,689.485948
6213.493570,-4071.132681,-8512.368333,766.095498
6213.493892,-4367.215058,-8290.306550,1149.143247
6213.494214,-4367.215058,-8734.430116,306.438199
6213.494536,-4071.132681,-8364.327145,689.485948
6213.494857,-4145.153275,-8660.409521,919.314598
6213.495179,-3775.050304,-8512.368333,612.876398
6213.495501,-3404.947333,-8808.450710,612.876398
6213.495822,-3552.988522,-8734.430116,689.485948
6213.496144,-3997.112087,-7994.224174,1455.581446
6213.496466,-4145.153275,-8438.347739,1378.971896
6213.496787,-3404.947333,-8438.347739,536.266849
6213.497109,-3478.967927,-8808.450710,766.095498
6213.497431,-3997.112087,-8512.368333,842.705048
6213.497753,-4293.194464,-8216.285956,919.314598
6213.498074,-4663.297435,-8290.306550,766.095498
6213.498396,-4219.173869,-8068.244768,383.047749
6213.498718,-4293.194464,-8586.388927,0.000000
6213.499039,-4737.318029,-8364.327145,76.609550
6213.499361,-4663.297435,-8586.388927,536.266849
6213.499683,-4071.132681,-8882.471304,0.000000
6213.500005,-3849.070898,-9030.512492,-229.828649
6213.500326,-3923.091493,-9326.594869,0.000000
6213.500648,-3552.988522,-8660.409521,229.828649
6213.500970,-2590.720797,-9400.615463,-153.219100
6213.501291,-2812.782580,-9252.574275,0.000000
6213.501613,-3701.029710,-9252.574275,306.438199
6213.501935,-4071.132681,-9548.656652,612.876398
6213.502257,-3701.029710,-9178.553681,-153.219100
6213.502578,-3330.926739,-9696.697840,-306.438199
6213.502900,-3923.091493,-8512.368333,0.000000
6213.503222,-3849.070898,-8808.450710,459.657299
6213.503543,-3997.112087,-8734.430116,-536.266849
6213.503865,-4293.194464,-8142.265362,-459.657299
6213.504187,-4441.235652,-8956.491898,-536.266849
6213.504509,-4441.235652,-8660.409521,-536.266849
6213.504830,-4441.235652,-8956.491898,-689.485948
6213.505152,-4441.235652,-9326.594869,-306.438199
6213.505474,-4367.215058,-9030.512492,0.000000
6213.505795,-4293.194464,-9030.512492,-995.924147
6213.506117,-3849.070898,-9030.512492,-842.705048
6213.506439,-3552.988522,-9326.594869,-536.266849
6213.506761,-3627.009116,-8956.491898,-306.438199
6213.507082,-3701.029710,-9252.574275,0.000000
6213.507404,-3034.844362,-9252.574275,0.000000
6213.507726,-3404.947333,-9104.533087,306.438199
6213.508047,-3849.070898,-8808.450710,612.876398
6213.508369,-3775.050304,-8068.244768,689.485948
6213.508691,-3627.009116,-8438.347739,0.000000
6213.509012,-3701.029710,-8068.244768,0.000000
6213.509334,-4293.194464,-8068.244768,0.000000
6213.509656,-4219.173869,-8290.306550,0.000000
6213.509978,-4811.338623,-8438.347739,306.438199
6213.510299,-4071.132681,-9178.553681,76.609550
6213.510621,-3923.091493,-8956.491898,229.828649
6213.510943,-3775.050304,-9474.636058,842.705048
6213.511264,-3034.844362,-8956.491898,612.876398
6213.511586,-2516.700203,-8956.491898,1072.533697
6213.511908,-2812.782580,-9104.533087,1072.533697
6213.512230,-2664.741391,-8438.347739,1608.800546
6213.512551,-2960.823768,-8364.327145,1378.971896
6213.512873,-3256.906145,-8068.244768,1302.362347
6213.513195,-3627.009116,-8586.388927,842.705048
6213.513516,-4219.173869,-8438.347739,766.095498
6213.513838,-4737.318029,-7846.182985,1149.143247
6213.514160,-4589.276840,-7994.224174,689.485948
6213.514482,-3997.112087,-7772.162391,153.219100
6213.514803,-4441.235652,-7994.224174,383.047749
6213.515125,-4663.297435,-8142.265362,919.314598
6213.515447,-4219.173869,-8512.368333,536.266849
6213.515768,-3849.070898,-9400.615463,995.924147
6213.516090,-3997.112087,-9252.574275,919.314598
6213.516412,-4071.132681,-9474.636058,1072.533697
6213.516734,-3552.988522,-8512.368333,842.705048
6213.517055,-3330.926739,-8364.327145,306.438199
6213.517377,-3330.926739,-8438.347739,612.876398
6213.517699,-4071.132681,-8142.265362,-229.828649
6213.518020,-3923.091493,-8142.265362,766.095498
6213.518342,-3849.070898,-8216.285956,459.657299
6213.518664,-3849.070898,-8142.265362,612.876398
6213.518986,-4071.132681,-8512.368333,229.828649
6213.519307,-4367.215058,-8216.285956,459.657299
6213.519629,-4663.297435,-8364.327145,459.657299
6213.519951,-5181.441594,-7994.224174,153.219100
6213.520272,-4589.276840,-8142.265362,0.000000
6213.520594,-4737.318029,-8586.388927,-153.219100
6213.520916,-4663.297435,-8586.388927,-229.828649
6213.521237,-4293.194464,-9104.533087,-306.438199
6213.521559,-4663.297435,-8882.471304,76.609550
6213.521881,-4441.235652,-8586.388927,229.828649
6213.522203,-3923.091493,-8586.388927,76.609550
6213.522524,-3849.070898,-8586.388927,0.000000
6213.522846,-3997.112087,-8734.430116,0.000000
6213.523168,-3923.091493,-8512.368333,-306.438199
6213.523489,-3552.988522,-8956.491898,0.000000
6213.523811,-3627.009116,-8882.471304,0.000000
6213.524133,-3404.947333,-9326.594869,-229.828649
6213.524455,-3923.091493,-9252.574275,0.000000
6213.524776,-4145.153275,-8808.450710,-153.219100
6213.525098,-3997.112087,-9474.636058,-689.485948
6213.525420,-4441.235652,-9178.553681,-306.438199
6213.525741,-4737.318029,-8660.409521,-383.047749
6213.526063,-4515.256246,-8438.347739,-459.657299
6213.526385,-4589.276840,-8290.306550,0.000000
6213.526707,-4589.276840,-8438.347739,-383.047749
6213.527028,-3997.112087,-9030.512492,-689.485948
6213.527350,-4515.256246,-8512.368333,-459.657299
6213.527672,-4367.215058,-8956.491898,-766.095498
6213.527993,-4515.256246,-8808.450710,-612.876398
6213.528315,-4071.132681,-8882.471304,-612.876398
6213.528637,-3701.029710,-9178.553681,-536.266849
6213.528959,-3256.906145,-9178.553681,-153.219100
6213.529280,-2442.679609,-9844.739029,-459.657299
6213.529602,-2738.761985,-9770.718434,-153.219100
6213.529924,-2738.761985,-9622.677246,76.609550
6213.530245,-2812.782580,-9474.636058,153.219100
6213.530567,-2738.761985,-9474.636058,229.828649
6213.530889,-2664.741391,-9252.574275,306.438199
6213.531211,-2812.782580,-9252.574275,306.438199
6213.531532,-3182.885551,-8364.327145,459.657299
6213.531854,-3404.947333,-8808.450710,0.000000
6213.532176,-3627.009116,-8808.450710,76.609550
6213.532497,-4293.194464,-8142.265362,153.219100
6213.532819,-4293.194464,-8660.409521,229.828649
6213.533141,-4515.256246,-8290.306550,306.438199
6213.533462,-4515.256246,-8068.244768,383.047749
6213.533784,-4515.256246,-8438.347739,306.438199
6213.534106,-4219.173869,-8438.347739,766.095498
6213.534428,-4145.153275,-8734.430116,459.657299
6213.534749,-3701.029710,-8734.430116,306.438199
6213.535071,-3923.091493,-8808.450710,995.924147
6213.535393,-3627.009116,-8660.409521,919.314598
6213.535714,-3775.050304,-8216.285956,1455.581446
6213.536036,-3627.009116,-9104.533087,612.876398
6213.536358,-3997.112087,-8290.306550,1455.581446
6213.536680,-4071.132681,-8364.327145,919.314598
6213.537001,-4589.276840,-7698.141797,1225.752797
6213.537323,-4737.318029,-8216.285956,536.266849
6213.537645,-4959.379811,-7772.162391,383.047749
6213.537966,-4885.359217,-7994.224174,229.828649
6213.538288,-4959.379811,-8068.244768,76.609550
6213.538610,-5107.421000,-8216.285956,459.657299
6213.538932,-4811.338623,-8734.430116,536.266849
6213.539253,-4737.318029,-8808.450710,383.047749
6213.539575,-4219.173869,-9252.574275,612.876398
6213.539897,-3701.029710,-8808.450710,919.314598
6213.540218,-4145.153275,-8734.430116,1302.362347
6213.540540,-3330.926739,-8586.388927,1302.362347
6213.540862,-3627.009116,-8290.306550,1378.971896
6213.541184,-3404.947333,-9030.512492,766.095498
6213.541505,-3478.967927,-8364.327145,842.705048
6213.541827,-3997.112087,-8512.368333,766.095498
6213.542149,-4293.194464,-8512.368333,689.485948
6213.542470,-4145.153275,-8142.265362,153.219100
6213.542792,-4293.194464,-8438.347739,153.219100
6213.543114,-4071.132681,-8882.471304,76.609550
6213.543435,-3923.091493,-8586.388927,612.876398
6213.543757,-4145.153275,-8586.388927,612.876398
6213.544079,-3923.091493,-8882.471304,306.438199
6213.544401,-3627.009116,-9474.636058,459.657299
6213.544722,-3701.029710,-9326.594869,459.657299
6213.545044,-2960.823768,-8808.450710,536.266849
6213.545366,-2590.720797,-9400.615463,842.705048
6213.545687,-2812.782580,-8956.491898,689.485948
6213.546009,-2664.741391,-9400.615463,612.876398
6213.546331,-3034.844362,-8808.450710,383.047749
6213.546653,-3108.864956,-9178.553681,383.047749
6213.546974,-3034.844362,-8882.471304,0.000000
6213.547296,-3404.947333,-9252.574275,76.609550
6213.547618,-3701.029710,-8438.347739,153.219100
6213.547939,-4071.132681,-8882.471304,919.314598
6213.548261,-4367.215058,-8512.368333,306.438199
6213.548583,-4145.153275,-8660.409521,0.000000
6213.548905,-4219.173869,-9030.512492,0.000000
6213.549226,-4293.194464,-8586.388927,-536.266849
6213.549548,-4071.132681,-8808.450710,-536.266849
6213.549870,-4145.153275,-8734.430116,-306.438199
6213.550191,-3997.112087,-8512.368333,306.438199
6213.550513,-3701.029710,-8956.491898,0.000000
6213.550835,-3775.050304,-9030.512492,-306.438199
6213.551157,-3775.050304,-9326.594869,306.438199
6213.551478,-3478.967927,-9030.512492,0.000000
6213.551800,-3627.009116,-8808.450710,0.000000
6213.552122,-3478.967927,-8956.491898,-383.047749
6213.552443,-3627.009116,-8512.368333,-306.438199
6213.552765,-3627.009116,-8956.491898,153.219100
6213.553087,-3997.112087,-8956.491898,-612.876398
6213.553409,-4219.173869,-8882.471304,153.219100
6213.553730,-4071.132681,-9252.574275,0.000000
6213.554052,-4589.276840,-8438.347739,0.000000
6213.554374,-4589.276840,-8956.491898,-689.485948
6213.554695,-4515.256246,-8512.368333,-153.219100
6213.555017,-4515.256246,-8068.244768,-612.876398
6213.555339,-4737.318029,-8142.265362,383.047749
6213.555660,-4737.318029,-8364.327145,153.219100
6213.555982,-4737.318029,-8512.368333,76.609550
6213.556304,-4663.297435,-8364.327145,76.609550
6213.556626,-4589.276840,-8956.491898,229.828649
6213.556947,-3849.070898,-8882.471304,459.657299
6213.557269,-4071.132681,-9030.512492,536.266849
6213.557591,-4145.153275,-8660.409521,0.000000
6213.557912,-3552.988522,-8808.450710,76.609550
6213.558234,-3404.947333,-8956.491898,0.000000
6213.558556,-3330.926739,-8882.471304,536.266849
6213.558878,-3330.926739,-9326.594869,842.705048
6213.559199,-2960.823768,-9030.512492,1455.581446
6213.559521,-2738.761985,-9474.636058,1455.581446
6213.559843,-2960.823768,-9622.677246,1378.971896
6213.560164,-3330.926739,-9326.594869,1149.143247
6213.560486,-3034.844362,-9474.636058,919.314598
6213.560808,-2664.741391,-9178.553681,919.314598
6213.561130,-2664.741391,-9474.636058,766.095498
6213.561451,-2886.803174,-8956.491898,1685.410096
6213.561773,-2886.803174,-9030.512492,1685.410096
6213.562095,-2220.617826,-8660.409521,1302.362347
6213.562416,-2294.638420,-8660.409521,1685.410096
6213.562738,-2738.761985,-9326.594869,1378.971896
6213.563060,-3330.926739,-8734.430116,1225.752797
6213.563382,-3182.885551,-9030.512492,1378.971896
6213.563703,-2960.823768,-8882.471304,1302.362347
6213.564025,-2886.803174,-8734.430116,1762.019645
6213.564347,-3034.844362,-9770.718434,1149.143247
6213.564668,-3256.906145,-9104.533087,1455.581446
6213.564990,-3404.947333,-9030.512492,1532.190996
6213.565312,-3256.906145,-9104.533087,1608.800546
6213.565634,-3478.967927,-9178.553681,1685.410096
6213.565955,-3256.906145,-9104.533087,1455.581446
6213.566277,-3330.926739,-8660.409521,2221.676944
6213.566599,-3330.926739,-8438.347739,2221.676944
6213.566920,-3552.988522,-7994.224174,2298.286494
6213.567242,-3478.967927,-8364.327145,1455.581446
6213.567564,-3108.864956,-8660.409521,1532.190996
6213.567885,-3182.885551,-8882.471304,1685.410096
6213.568207,-3404.947333,-8956.491898,1685.410096
6213.568529,-3330.926739,-8660.409521,1762.019645
6213.568851,-2738.761985,-9400.615463,1838.629195
6213.569172,-2960.823768,-8882.471304,1225.752797
6213.569494,-2738.761985,-9326.594869,1378.971896
6213.569816,-2960.823768,-9178.553681,1378.971896
6213.570137,-3034.844362,-8808.450710,1838.629195
6213.570459,-3404.947333,-9400.615463,1838.629195
6213.570781,-3182.885551,-8216.285956,1455.581446
6213.571103,-3108.864956,-9326.594869,1225.752797
6213.571424,-4441.235652,-8364.327145,1838.629195
6213.571746,-3775.050304,-8142.265362,1072.533697
6213.572068,-3849.070898,-8142.265362,1149.143247
6213.572389,-4145.153275,-8438.347739,1149.143247
6213.572711,-3997.112087,-8364.327145,842.705048
6213.573033,-3775.050304,-8364.327145,842.705048
6213.573355,-3997.112087,-8586.388927,1378.971896
6213.573676,-4663.297435,-8438.347739,1532.190996
6213.573998,-4145.153275,-8734.430116,766.095498
6213.574320,-3923.091493,-9030.512492,383.047749
6213.574641,-4293.194464,-8956.491898,153.219100
6213.574963,-4441.235652,-8734.430116,0.000000
6213.575285,-4219.173869,-8512.368333,0.000000
6213.575607,-3923.091493,-8882.471304,76.609550
6213.575928,-3923.091493,-8216.285956,-229.828649
6213.576250,-3627.009116,-8956.491898,-229.828649
6213.576572,-3775.050304,-8512.368333,76.609550
6213.576893,-3330.926739,-8956.491898,153.219100
6213.577215,-3478.967927,-9474.636058,153.219100
6213.577537,-3182.885551,-8956.491898,0.000000
6213.577858,-3256.906145,-9178.553681,842.705048
6213.578180,-3256.906145,-8808.450710,0.000000
6213.578502,-3552.988522,-8882.471304,0.000000
6213.578824,-3034.844362,-9326.594869,-229.828649
6213.579145,-3330.926739,-9252.574275,0.000000
6213.579467,-3478.967927,-9326.594869,0.000000
6213.579789,-3478.967927,-8956.491898,-229.828649
6213.580111,-3552.988522,-9252.574275,0.000000
6213.580432,-3478.967927,-9326.594869,536.266849
6213.580754,-3182.885551,-9030.512492,306.438199
6213.581076,-3182.885551,-9548.656652,0.000000
6213.581398,-3256.906145,-8882.471304,0.000000
6213.581719,-2738.761985,-9474.636058,0.000000
6213.582041,-3256.906145,-9252.574275,76.609550
6213.582363,-3034.844362,-9104.533087,76.609550
6213.582685,-3552.988522,-9400.615463,229.828649
6213.583006,-3849.070898,-8956.491898,229.828649
6213.583328,-3552.988522,-9252.574275,76.609550
6213.583650,-3478.967927,-8956.491898,229.828649
6213.583972,-3256.906145,-8956.491898,76.609550
6213.584293,-3552.988522,-8956.491898,383.047749
6213.584615,-3552.988522,-9400.615463,229.828649
6213.584937,-3478.967927,-9326.594869,0.000000
6213.585259,-3404.947333,-9030.512492,383.047749
6213.585580,-3552.988522,-9104.533087,383.047749
6213.585902,-3256.906145,-8882.471304,766.095498
6213.586224,-3404.947333,-9030.512492,842.705048
6213.586546,-3404.947333,-8586.388927,689.485948
6213.586867,-3330.926739,-9178.553681,919.314598
6213.587189,-3478.967927,-8586.388927,766.095498
6213.587511,-3478.967927,-8808.450710,1072.533697
6213.587833,-3552.988522,-8660.409521,1608.800546
6213.588154,-3478.967927,-8512.368333,1608.800546
6213.588476,-3552.988522,-8660.409521,2145.067394
6213.588798,-3701.029710,-8438.347739,1378.971896
6213.589120,-3330.926739,-9030.512492,1225.752797
6213.589441,-3775.050304,-8438.347739,1608.800546
6213.589763,-3552.988522,-8734.430116,1608.800546
6213.590085,-3404.947333,-9030.512492,1685.410096
6213.590407,-3182.885551,-8438.347739,1532.190996
6213.590728,-3552.988522,-8512.368333,1685.410096
6213.591050,-3108.864956,-8364.327145,2068.457845
6213.591372,-3552.988522,-8438.347739,1455.581446
6213.591694,-3701.029710,-8586.388927,1608.800546
6213.592015,-3404.947333,-8586.388927,1608.800546
6213.592337,-3923.091493,-8734.430116,1838.629195
6213.592659,-3701.029710,-8512.368333,1685.410096
6213.592981,-3330.926739,-9030.512492,1532.190996
6213.593302,-3701.029710,-8438.347739,1072.533697
6213.593624,-3701.029710,-9400.615463,1991.848295
6213.593946,-3034.844362,-8290.306550,1532.190996
6213.594268,-3182.885551,-8882.471304,1685.410096
6213.594589,-3478.967927,-8956.491898,1378.971896
6213.594911,-3404.947333,-8586.388927,1455.581446
6213.595233,-3256.906145,-9030.512492,1532.190996
6213.595555,-2960.823768,-8586.388927,1378.971896
6213.595876,-2886.803174,-8956.491898,766.095498
6213.596198,-3256.906145,-9030.512492,1072.533697
6213.596520,-3182.885551,-8216.285956,1225.752797
6213.596842,-2738.761985,-9030.512492,919.314598
6213.597163,-3108.864956,-8882.471304,1149.143247
6213.597485,-3627.009116,-9252.574275,1225.752797
6213.597807,-3849.070898,-8438.347739,1838.629195
6213.598129,-3108.864956,-9104.533087,919.314598
6213.598450,-2960.823768,-8438.347739,306.438199
6213.598772,-3330.926739,-8586.388927,306.438199
6213.599094,-3404.947333,-9252.574275,612.876398
6213.599416,-3404.947333,-8586.388927,612.876398
6213.599737,-3182.885551,-9474.636058,229.828649
6213.600059,-3775.050304,-8882.471304,0.000000
6213.600381,-3849.070898,-9474.636058,0.000000
6213.600703,-3552.988522,-8660.409521,153.219100
6213.601024,-2590.720797,-8882.471304,-612.876398
6213.601346,-3330.926739,-8882.471304,0.000000
6213.601668,-4145.153275,-8586.388927,612.876398
6213.601990,-3997.112087,-9326.594869,306.438199
6213.602312,-4071.132681,-9178.553681,0.000000
6213.602633,-3849.070898,-9548.656652,-766.095498
6213.602955,-4145.153275,-9104.533087,-842.705048
6213.603277,-4145.153275,-8808.450710,0.000000
6213.603599,-3923.091493,-9474.636058,-306.438199
6213.603920,-3849.070898,-9252.574275,0.000000
6213.604242,-3552.988522,-9252.574275,-383.047749
6213.604564,-3404.947333,-9104.533087,306.438199
6213.604886,-3034.844362,-9622.677246,919.314598
6213.605207,-3552.988522,-8734.430116,995.924147
6213.605529,-4293.194464,-8660.409521,689.485948
6213.605851,-4145.153275,-8660.409521,153.219100
6213.606173,-4293.194464,-8438.347739,306.438199
6213.606494,-3923.091493,-8882.471304,0.000000
6213.606816,-3775.050304,-8438.347739,-383.047749
6213.607138,-3701.029710,-9252.574275,-306.438199
6213.607460,-3552.988522,-9400.615463,229.828649
6213.607781,-3627.009116,-9400.615463,306.438199
6213.608103,-3034.844362,-9326.594869,1149.143247
6213.608425,-2886.803174,-9252.574275,1225.752797
6213.608747,-2960.823768,-9474.636058,1608.800546
6213.609068,-2812.782580,-8438.347739,1532.190996
6213.609390,-3404.947333,-8364.327145,1532.190996
6213.609712,-3775.050304,-8290.306550,1532.190996
6213.610034,-4219.173869,-8216.285956,2298.286494
6213.610355,-4663.297435,-8290.306550,995.924147
6213.610677,-4441.235652,-7550.100608,459.657299
6213.610999,-3923.091493,-8734.430116,76.609550
6213.611321,-3701.029710,-8364.327145,0.000000
6213.611642,-3701.029710,-8734.430116,459.657299
6213.611964,-3627.009116,-8882.471304,1302.362347
6213.612286,-2590.720797,-8808.450710,1532.190996
6213.612608,-2368.659014,-9474.636058,842.705048
6213.612929,-2590.720797,-9326.594869,1225.752797
6213.613251,-3108.864956,-9400.615463,1838.629195
6213.613573,-3034.844362,-9104.533087,1685.410096
6213.613895,-2812.782580,-8808.450710,1302.362347
6213.614216,-3330.926739,-8364.327145,689.485948
6213.614538,-3627.009116,-7550.100608,1225.752797
6213.614860,-3256.906145,-7698.141797,1149.143247
6213.615182,-3182.885551,-7772.162391,536.266849
6213.615503,-3701.029710,-8438.347739,766.095498
6213.615825,-3701.029710,-8734.430116,919.314598
6213.616147,-3330.926739,-8438.347739,1302.362347
6213.616469,-3330.926739,-9252.574275,1608.800546
6213.616790,-3256.906145,-8808.450710,766.095498
6213.617112,-3182.885551,-9844.739029,612.876398
6213.617434,-3256.906145,-9622.677246,0.000000
6213.617756,-3330.926739,-9178.553681,689.485948
6213.618077,-3034.844362,-9474.636058,842.705048
6213.618399,-3034.844362,-9252.574275,995.924147
6213.618721,-2886.803174,-9104.533087,995.924147
6213.619043,-2812.782580,-8808.450710,1532.190996
6213.619364,-3182.885551,-8512.368333,1608.800546
6213.619686,-3404.947333,-9178.553681,919.314598
6213.620008,-2664.741391,-8956.491898,689.485948
6213.620330,-3034.844362,-8956.491898,536.266849
6213.620651,-3404.947333,-8882.471304,459.657299
6213.620973,-3701.029710,-9252.574275,612.876398
6213.621295,-3701.029710,-9400.615463,612.876398
6213.621617,-3478.967927,-9622.677246,0.000000
6213.621938,-3552.988522,-9400.615463,-536.266849
6213.622260,-3404.947333,-9400.615463,536.266849
6213.622582,-3330.926739,-9474.636058,536.266849
6213.622904,-3256.906145,-9400.615463,1149.143247
6213.623225,-3108.864956,-9400.615463,1302.362347
6213.623547,-2960.823768,-9178.553681,1455.581446
6213.623869,-3108.864956,-9326.594869,1685.410096
6213.624191,-2738.761985,-8660.409521,1378.971896
6213.624512,-3330.926739,-8882.471304,689.485948
6213.624834,-3552.988522,-9178.553681,229.828649
6213.625156,-3627.009116,-8734.430116,383.047749
6213.625478,-3997.112087,-9326.594869,229.828649
6213.625799,-4219.173869,-8808.450710,459.657299
6213.626121,-3849.070898,-9252.574275,306.438199
6213.626443,-3701.029710,-9104.533087,689.485948
6213.626765,-3552.988522,-8882.471304,1072.533697
6213.627086,-3256.906145,-9992.780217,536.266849
6213.627408,-3330.926739,-8882.471304,1225.752797
6213.627730,-2960.823768,-9326.594869,1072.533697
6213.628052,-3330.926739,-8734.430116,1378.971896
6213.628373,-3182.885551,-8808.450710,919.314598
6213.628695,-2960.823768,-8808.450710,1455.581446
6213.629017,-3182.885551,-7920.203579,995.924147
6213.629339,-3849.070898,-8142.265362,1149.143247
6213.629660,-3478.967927,-7994.224174,1302.362347
6213.629982,-3330.926739,-8364.327145,1225.752797
6213.630304,-3627.009116,-8438.347739,1072.533697
6213.630626,-3923.091493,-8586.388927,1225.752797
6213.630947,-3701.029710,-8364.327145,1378.971896
6213.631269,-2886.803174,-8586.388927,1302.362347
6213.631591,-3923.091493,-8512.368333,1225.752797
6213.631913,-2812.782580,-8734.430116,1072.533697
6213.632234,-3182.885551,-9030.512492,1455.581446
6213.632556,-2960.823768,-8734.430116,1532.190996
6213.632878,-2590.720797,-9104.533087,1225.752797
6213.633200,-2960.823768,-8216.285956,1378.971896
6213.633521,-2812.782580,-8512.368333,1532.190996
6213.633843,-2960.823768,-8364.327145,1532.190996
6213.634165,-2960.823768,-8216.285956,1149.143247
6213.634487,-3182.885551,-8660.409521,1225.752797
6213.634808,-3404.947333,-8438.347739,1149.143247
6213.635130,-3701.029710,-8734.430116,612.876398
6213.635452,-3330.926739,-9252.574275,76.609550
6213.635774,-3923.091493,-8956.491898,306.438199
6213.636096,-3997.112087,-9326.594869,76.609550
6213.636417,-3923.091493,-8660.409521,383.047749
6213.636739,-3775.050304,-9474.636058,383.047749
6213.637061,-3552.988522,-9030.512492,689.485948
6213.637383,-3552.988522,-9326.594869,766.095498
6213.637704,-3627.009116,-9252.574275,612.876398
6213.638026,-4515.256246,-8216.285956,1149.143247
6213.638348,-4367.215058,-8808.450710,766.095498
6213.638670,-4367.215058,-8586.388927,229.828649
6213.638991,-4441.235652,-8882.471304,0.000000
6213.639313,-4219.173869,-8808.450710,-306.438199
6213.639635,-4145.153275,-9030.512492,0.000000
6213.639957,-4145.153275,-9178.553681,0.000000
6213.640278,-4071.132681,-8660.409521,0.000000
6213.640600,-3627.009116,-9474.636058,153.219100
6213.640922,-3108.864956,-9844.739029,0.000000
6213.641244,-2886.803174,-9474.636058,0.000000
6213.641565,-2960.823768,-9326.594869,459.657299
6213.641887,-3182.885551,-9252.574275,1072.533697
6213.642209,-3478.967927,-9252.574275,766.095498
6213.642531,-3701.029710,-8882.471304,612.876398
6213.642852,-3404.947333,-8956.491898,306.438199
6213.643174,-3849.070898,-8512.368333,153.219100
6213.643496,-3478.967927,-8512.368333,1072.533697
6213.643818,-3552.988522,-8512.368333,766.095498
6213.644139,-3552.988522,-8586.388927,383.047749
6213.644461,-3478.967927,-9104.533087,766.095498
6213.644783,-3330.926739,-8882.471304,229.828649
6213.645105,-3256.906145,-8734.430116,536.266849
6213.645426,-2812.782580,-9400.615463,459.657299
6213.645748,-2812.782580,-8512.368333,229.828649
6213.646070,-2960.823768,-9326.594869,689.485948
6213.646392,-2960.823768,-9252.574275,536.266849
6213.646713,-2738.761985,-9252.574275,1072.533697
6213.647035,-2738.761985,-8882.471304,1149.143247
6213.647357,-2812.782580,-8808.450710,1455.581446
6213.647679,-2812.782580,-9104.533087,1072.533697
6213.648000,-2886.803174,-9326.594869,919.314598
6213.648322,-3182.885551,-8142.265362,995.924147
6213.648644,-3256.906145,-8216.285956,919.314598
6213.648966,-3701.029710,-8142.265362,1149.143247
6213.649287,-3627.009116,-8364.327145,1072.533697
6213.649609,-3552.988522,-8512.368333,766.095498
6213.649931,-3034.844362,-8734.430116,1072.533697
6213.650253,-3404.947333,-9252.574275,995.924147
6213.650574,-3330.926739,-9400.615463,1532.190996
6213.650896,-3404.947333,-8956.491898,1455.581446
6213.651218,-2738.761985,-9400.615463,1455.581446
6213.651540,-2886.803174,-9400.615463,2068.457845
6213.651861,-2812.782580,-8956.491898,2068.457845
6213.652183,-2590.720797,-9104.533087,2451.505594
6213.652505,-3108.864956,-8216.285956,1991.848295
6213.652827,-3923.091493,-8734.430116,1455.581446
6213.653148,-3552.988522,-8364.327145,689.485948
6213.653470,-4219.173869,-8586.388927,1072.533697
6213.653792,-4367.215058,-8364.327145,689.485948
6213.654114,-4663.297435,-8290.306550,612.876398
6213.654435,-4811.338623,-8290.306550,536.266849
6213.654757,-4737.318029,-8512.368333,919.314598
6213.655079,-5033.400406,-8734.430116,689.485948
6213.655401,-4959.379811,-8142.265362,0.000000
6213.655722,-5107.421000,-8586.388927,689.485948
6213.656044,-4811.338623,-8216.285956,766.095498
6213.656366,-4885.359217,-8364.327145,842.705048
6213.656688,-4885.359217,-8142.265362,612.876398
6213.657009,-4811.338623,-7994.224174,536.266849
6213.657331,-4663.297435,-8290.306550,1225.752797
6213.657653,-4885.359217,-7772.162391,153.219100
6213.657975,-4737.318029,-8586.388927,0.000000
6213.658296,-4663.297435,-8068.244768,-306.438199
6213.658618,-4589.276840,-8290.306550,-306.438199
6213.658940,-4441.235652,-8364.327145,0.000000
6213.659262,-4441.235652,-8956.491898,153.219100
6213.659583,-3775.050304,-8882.471304,-689.485948
6213.659905,-4145.153275,-8956.491898,0.000000
6213.660227,-3478.967927,-9178.553681,-612.876398
6213.660549,-3923.091493,-9104.533087,-229.828649
6213.660870,-3478.967927,-9474.636058,0.000000
6213.661192,-3478.967927,-9030.512492,0.000000
6213.661514,-3256.906145,-8882.471304,612.876398
6213.661836,-3256.906145,-8808.450710,-306.438199
6213.662157,-3478.967927,-8586.388927,0.000000
6213.662479,-3108.864956,-9104.533087,383.047749
6213.662801,-2960.823768,-9178.553681,0.000000
6213.663123,-3478.967927,-9104.533087,0.000000
6213.663444,-3701.029710,-8660.409521,-612.876398
6213.663766,-4071.132681,-8808.450710,-459.657299
6213.664088,-4071.132681,-8882.471304,-1149.143247
6213.664410,-4145.153275,-8660.409521,-766.095498
6213.664731,-3775.050304,-9178.553681,-229.828649
6213.665053,-4441.235652,-8586.388927,0.000000
6213.665375,-3849.070898,-9252.574275,-612.876398
6213.665697,-3849.070898,-9104.533087,-383.047749
6213.666018,-3627.009116,-9326.594869,-306.438199
6213.666340,-3701.029710,-9252.574275,-306.438199
6213.666662,-3330.926739,-9326.594869,0.000000
6213.666984,-3330.926739,-8882.471304,-612.876398
6213.667305,-3627.009116,-8734.430116,0.000000
6213.667627,-3701.029710,-9104.533087,-536.266849
6213.667949,-3701.029710,-8882.471304,-766.095498
6213.668271,-3701.029710,-9178.553681,-689.485948
6213.668592,-3849.070898,-8882.471304,-689.485948
6213.668914,-4071.132681,-8956.491898,-383.047749
6213.669236,-4737.318029,-8512.368333,0.000000
6213.669558,-3923.091493,-8586.388927,459.657299
6213.669879,-3997.112087,-9104.533087,-153.219100
6213.670201,-3849.070898,-8956.491898,229.828649
6213.670523,-3627.009116,-9104.533087,76.609550
6213.670845,-3627.009116,-8956.491898,153.219100
6213.671167,-3997.112087,-8808.450710,459.657299
6213.671488,-3478.967927,-9252.574275,229.828649
6213.671810,-3478.967927,-9252.574275,0.000000
6213.672132,-4293.194464,-8882.471304,766.095498
6213.672454,-4145.153275,-8586.388927,766.095498
6213.672775,-4145.153275,-8660.409521,689.485948
6213.673097,-4663.297435,-8586.388927,842.705048
6213.673419,-4885.359217,-8142.265362,842.705048
6213.673741,-4663.297435,-7402.059420,459.657299
6213.674062,-4737.318029,-7920.203579,153.219100
6213.674384,-4885.359217,-7698.141797,76.609550
6213.674706,-5107.421000,-7994.224174,689.485948
6213.675028,-5107.421000,-7920.203579,842.705048
6213.675349,-5255.462188,-8216.285956,766.095498
6213.675671,-4959.379811,-8290.306550,689.485948
6213.675993,-4811.338623,-8290.306550,766.095498
6213.676315,-4737.318029,-8660.409521,689.485948
6213.676636,-3997.112087,-8290.306550,1302.362347
6213.676958,-3701.029710,-8586.388927,842.705048
6213.677280,-3627.009116,-8512.368333,1149.143247
6213.677602,-3775.050304,-8216.285956,1302.362347
6213.677923,-3627.009116,-8586.388927,1149.143247
6213.678245,-3404.947333,-8734.430116,766.095498
6213.678567,-3923.091493,-7994.224174,1378.971896
6213.678889,-3552.988522,-8512.368333,842.705048
6213.679210,-3478.967927,-8512.368333,459.657299
6213.679532,-3478.967927,-8586.388927,766.095498
6213.679854,-3701.029710,-8438.347739,766.095498
6213.680176,-3627.009116,-8660.409521,459.657299
6213.680497,-3034.844362,-9104.533087,-383.047749
6213.680819,-3034.844362,-8956.491898,0.000000
6213.681141,-3108.864956,-9326.594869,459.657299
6213.681463,-2812.782580,-9474.636058,459.657299
6213.681784,-3034.844362,-9400.615463,1149.143247
6213.682106,-2812.782580,-9030.512492,536.266849
6213.682428,-2960.823768,-8882.471304,536.266849
6213.682750,-3182.885551,-8808.450710,306.438199
6213.683071,-3701.029710,-8290.306550,612.876398
6213.683393,-3627.009116,-7994.224174,459.657299
6213.683715,-3552.988522,-8660.409521,306.438199
6213.684037,-4145.153275,-8660.409521,153.219100
6213.684358,-3923.091493,-9178.553681,229.828649
6213.684680,-3849.070898,-9326.594869,0.000000
6213.685002,-3775.050304,-9104.533087,76.609550
6213.685324,-3923.091493,-8808.450710,0.000000
6213.685646,-3701.029710,-8734.430116,153.219100
6213.685967,-3849.070898,-8808.450710,383.047749
6213.686289,-4219.173869,-9030.512492,306.438199
6213.686611,-3923.091493,-8882.471304,0.000000
6213.686933,-3849.070898,-9548.656652,76.609550
6213.687254,-3997.112087,-8586.388927,0.000000
6213.687576,-4071.132681,-8734.430116,-153.219100
6213.687898,-3997.112087,-8660.409521,-306.438199
6213.688220,-3849.070898,-8290.306550,0.000000
6213.688541,-4071.132681,-9104.533087,-766.095498
6213.688863,-4441.235652,-8290.306550,0.000000
6213.689185,-4367.215058,-8808.450710,-229.828649
6213.689507,-4367.215058,-9030.512492,-766.095498
6213.689828,-4293.194464,-9030.512492,0.000000
6213.690150,-4737.318029,-8512.368333,689.485948
6213.690472,-4663.297435,-8956.491898,153.219100
6213.690794,-4589.276840,-8808.450710,0.000000
6213.691116,-4293.194464,-8808.450710,-306.438199
6213.691437,-4515.256246,-8438.347739,0.000000
6213.691759,-4145.153275,-8438.347739,0.000000
6213.692081,-4219.173869,-8586.388927,0.000000
6213.692403,-4219.173869,-8512.368333,0.000000
6213.692724,-4367.215058,-9030.512492,76.609550
6213.693046,-4367.215058,-8512.368333,-306.438199
6213.693368,-4441.235652,-8216.285956,-612.876398
6213.693690,-4663.297435,-8660.409521,-306.438199
6213.694011,-5107.421000,-8290.306550,-306.438199
6213.694333,-4663.297435,-8216.285956,-383.047749
6213.694655,-4145.153275,-8364.327145,0.000000
6213.694977,-3849.070898,-9104.533087,-153.219100
6213.695298,-3627.009116,-8956.491898,76.609550
6213.695620,-4367.215058,-8586.388927,689.485948
6213.695942,-3849.070898,-8660.409521,766.095498
6213.696264,-3404.947333,-8882.471304,383.047749
6213.696586,-3330.926739,-8660.409521,76.609550
6213.696907,-3627.009116,-8290.306550,383.047749
6213.697229,-3108.864956,-8882.471304,76.609550
6213.697551,-3034.844362,-8290.306550,0.000000
6213.697873,-3552.988522,-8956.491898,536.266849
6213.698194,-4219.173869,-8734.430116,995.924147
6213.698516,-3849.070898,-9400.615463,536.266849
6213.698838,-3478.967927,-9030.512492,0.000000
6213.699160,-3478.967927,-9178.553681,0.000000
6213.699481,-3552.988522,-8734.430116,536.266849
6213.699803,-3552.988522,-8808.450710,1302.362347
6213.700125,-2886.803174,-9474.636058,536.266849
6213.700447,-3627.009116,-8882.471304,842.705048
6213.700768,-3923.091493,-8956.491898,1072.533697
6213.701090,-3552.988522,-8808.450710,459.657299
6213.701412,-3849.070898,-8882.471304,766.095498
6213.701734,-4441.235652,-8438.347739,919.314598
6213.702056,-4145.153275,-8734.430116,536.266849
6213.702377,-4515.256246,-8586.388927,842.705048
6213.702699,-4219.173869,-8216.285956,766.095498
6213.703021,-3849.070898,-8956.491898,689.485948
6213.703343,-3627.009116,-9030.512492,689.485948
6213.703664,-3849.070898,-9104.533087,1149.143247
6213.703986,-3923.091493,-8734.430116,1302.362347
6213.704308,-4367.215058,-8290.306550,1302.362347
6213.704630,-3701.029710,-8364.327145,1149.143247
6213.704951,-3256.906145,-8068.244768,306.438199
6213.705273,-3775.050304,-8216.285956,536.266849
6213.705595,-4219.173869,-8364.327145,383.047749
6213.705917,-4367.215058,-8586.388927,536.266849
6213.706238,-4145.153275,-8808.450710,0.000000
6213.706560,-3849.070898,-8586.388927,229.828649
6213.706882,-3627.009116,-8438.347739,689.485948
6213.707204,-3404.947333,-8364.327145,229.828649
6213.707526,-3034.844362,-8586.388927,306.438199
6213.707847,-3182.885551,-9030.512492,919.314598
6213.708169,-3552.988522,-8956.491898,1149.143247
6213.708491,-3701.029710,-8734.430116,919.314598
6213.708813,-3256.906145,-8808.450710,76.609550
6213.709134,-3627.009116,-8512.368333,612.876398
6213.709456,-4515.256246,-8438.347739,306.438199
6213.709778,-4737.318029,-8364.327145,0.000000
6213.710100,-4441.235652,-8142.265362,306.438199
6213.710421,-4145.153275,-8808.450710,-459.657299
6213.710743,-4367.215058,-8660.409521,0.000000
6213.711065,-4219.173869,-9326.594869,0.000000
6213.711387,-3849.070898,-9030.512492,153.219100
6213.711708,-3404.947333,-9030.512492,0.000000
6213.712030,-3627.009116,-9400.615463,229.828649
6213.712352,-4071.132681,-9030.512492,306.438199
6213.712674,-3701.029710,-9178.553681,0.000000
6213.712996,-3627.009116,-8660.409521,-536.266849
6213.713317,-3849.070898,-8956.491898,-153.219100
6213.713639,-4071.132681,-8438.347739,0.000000
6213.713961,-4219.173869,-8660.409521,536.266849
6213.714283,-4293.194464,-8660.409521,919.314598
6213.714604,-4515.256246,-8068.244768,0.000000
6213.714926,-4219.173869,-9030.512492,-229.828649
6213.715248,-4515.256246,-8438.347739,-306.438199
6213.715570,-4663.297435,-9030.512492,0.000000
6213.715891,-4589.276840,-9178.553681,153.219100
6213.716213,-4367.215058,-8438.347739,0.000000
6213.716535,-4219.173869,-9474.636058,-306.438199
6213.716857,-3701.029710,-8882.471304,0.000000
6213.717178,-3552.988522,-9178.553681,0.000000
6213.717500,-3923.091493,-9030.512492,306.438199
6213.717822,-3775.050304,-8586.388927,459.657299
6213.718144,-4071.132681,-8586.388927,536.266849
6213.718466,-4071.132681,-8068.244768,306.438199
6213.718787,-4145.153275,-8364.327145,383.047749
6213.719109,-4219.173869,-7846.182985,153.219100
6213.719431,-4737.318029,-8068.244768,153.219100
6213.719753,-4737.318029,-8216.285956,-153.219100
6213.720074,-4737.318029,-8438.347739,-229.828649
6213.720396,-4737.318029,-8660.409521,-229.828649
6213.720718,-4737.318029,-7772.162391,-995.924147
6213.721040,-5107.421000,-8660.409521,-459.657299
6213.721361,-4367.215058,-8660.409521,-536.266849
6213.721683,-4441.235652,-8512.368333,0.000000
6213.722005,-3997.112087,-8956.491898,-153.219100
6213.722327,-3478.967927,-8882.471304,306.438199
6213.722648,-3404.947333,-8808.450710,459.657299
6213.722970,-2960.823768,-8364.327145,306.438199
6213.723292,-2886.803174,-8586.388927,689.485948
6213.723614,-3108.864956,-8956.491898,-536.266849
6213.723936,-2960.823768,-9104.533087,76.609550
6213.724257,-3701.029710,-8512.368333,0.000000
6213.724579,-3849.070898,-8660.409521,76.609550
6213.724901,-3478.967927,-8882.471304,-229.828649
6213.725223,-3404.947333,-8808.450710,-229.828649
6213.725544,-3775.050304,-9030.512492,-536.266849
6213.725866,-3997.112087,-8438.347739,0.000000
6213.726188,-3849.070898,-8956.491898,229.828649
6213.726510,-3701.029710,-9178.553681,76.609550
6213.726831,-3627.009116,-9178.553681,383.047749
6213.727153,-3552.988522,-9326.594869,383.047749
6213.727475,-3627.009116,-9030.512492,766.095498
6213.727797,-3775.050304,-8660.409521,689.485948
6213.728119,-3997.112087,-8586.388927,689.485948
6213.728440,-3627.009116,-8660.409521,383.047749
6213.728762,-3552.988522,-8808.450710,536.266849
6213.729084,-3923.091493,-8586.388927,306.438199
6213.729406,-4219.173869,-8364.327145,306.438199
6213.729727,-4515.256246,-8956.491898,383.047749
6213.730049,-4737.318029,-8660.409521,76.609550
6213.730371,-4589.276840,-8512.368333,0.000000
6213.730693,-4293.194464,-9252.574275,-612.876398
6213.731014,-4515.256246,-8586.388927,0.000000
6213.731336,-4589.276840,-8882.471304,306.438199
6213.731658,-4441.235652,-8660.409521,0.000000
6213.731980,-4589.276840,-8956.491898,383.047749
6213.732301,-4441.235652,-8660.409521,153.219100
6213.732623,-4367.215058,-8364.327145,536.266849
6213.732945,-3923.091493,-8808.450710,919.314598
6213.733267,-4293.194464,-8216.285956,689.485948
6213.733589,-4071.132681,-8734.430116,842.705048
6213.733910,-4367.215058,-8438.347739,383.047749
6213.734232,-4145.153275,-8586.388927,306.438199
6213.734554,-4219.173869,-8512.368333,0.000000
6213.734876,-3997.112087,-8512.368333,306.438199
6213.735197,-4219.173869,-8512.368333,-229.828649
6213.735519,-3849.070898,-8216.285956,229.828649
6213.735841,-3923.091493,-8808.450710,459.657299
6213.736163,-3923.091493,-8808.450710,842.705048
6213.736484,-3627.009116,-8956.491898,536.266849
6213.736806,-3627.009116,-9030.512492,153.219100
6213.737128,-3627.009116,-8808.450710,229.828649
6213.737450,-3849.070898,-9104.533087,76.609550
6213.737771,-3478.967927,-8660.409521,459.657299
6213.738093,-3701.029710,-8734.430116,919.314598
6213.738415,-4071.132681,-8808.450710,689.485948
6213.738737,-3849.070898,-8734.430116,536.266849
6213.739059,-3775.050304,-8660.409521,842.705048
6213.739380,-3701.029710,-8512.368333,383.047749
6213.739702,-3849.070898,-8512.368333,459.657299
6213.740024,-3552.988522,-8438.347739,306.438199
6213.740346,-3478.967927,-8586.388927,76.609550
6213.740667,-3552.988522,-8660.409521,229.828649
6213.740989,-3182.885551,-8734.430116,306.438199
6213.741311,-3627.009116,-9178.553681,459.657299
6213.741633,-3478.967927,-9178.553681,766.095498
6213.741954,-3404.947333,-8808.450710,536.266849
6213.742276,-3478.967927,-9474.636058,995.924147
6213.742598,-3478.967927,-8512.368333,229.828649
6213.742920,-3775.050304,-8660.409521,306.438199
6213.743241,-3775.050304,-8586.388927,459.657299
6213.743563,-3923.091493,-8438.347739,383.047749
6213.743885,-4145.153275,-8734.430116,153.219100
6213.744207,-4219.173869,-7846.182985,0.000000
6213.744529,-3997.112087,-9030.512492,-383.047749
6213.744850,-3923.091493,-8660.409521,-383.047749
6213.745172,-3701.029710,-9326.594869,-229.828649
6213.745494,-4219.173869,-9178.553681,-229.828649
6213.745816,-3627.009116,-8882.471304,0.000000
6213.746137,-3404.947333,-9400.615463,0.000000
6213.746459,-3627.009116,-9178.553681,0.000000
6213.746781,-3849.070898,-8882.471304,536.266849
6213.747103,-3849.070898,-9104.533087,383.047749
6213.747424,-3923.091493,-9400.615463,766.095498
6213.747746,-3701.029710,-9400.615463,-306.438199
6213.748068,-4441.235652,-8734.430116,0.000000
6213.748390,-4219.173869,-8808.450710,0.000000
6213.748711,-4293.194464,-8734.430116,0.000000
6213.749033,-4293.194464,-8290.306550,-306.438199
6213.749355,-4145.153275,-8512.368333,0.000000
6213.749677,-4737.318029,-8216.285956,229.828649
6213.749999,-4145.153275,-8364.327145,0.000000
6213.750320,-4145.153275,-8882.471304,0.000000
6213.750642,-4219.173869,-8882.471304,306.438199
6213.750964,-4145.153275,-9326.594869,306.438199
6213.751286,-4145.153275,-8660.409521,383.047749
6213.751607,-3923.091493,-9400.615463,459.657299
6213.751929,-3997.112087,-8808.450710,383.047749
6213.752251,-3256.906145,-8438.347739,612.876398
6213.752573,-3775.050304,-9252.574275,383.047749
6213.752894,-3404.947333,-8956.491898,459.657299
6213.753216,-3256.906145,-9474.636058,612.876398
6213.753538,-3108.864956,-9474.636058,689.485948
6213.753860,-3330.926739,-9252.574275,1072.533697
6213.754181,-2590.720797,-9104.533087,1455.581446
6213.754503,-2664.741391,-8734.430116,1072.533697
6213.754825,-2368.659014,-9178.553681,1302.362347
6213.755147,-2664.741391,-8956.491898,1225.752797
6213.755469,-2812.782580,-9030.512492,1072.533697
6213.755790,-2960.823768,-9252.574275,1149.143247
6213.756112,-3108.864956,-8734.430116,1532.190996
6213.756434,-3034.844362,-8660.409521,1072.533697
6213.756756,-3404.947333,-9178.553681,1608.800546
6213.757077,-3552.988522,-8734.430116,2451.505594
6213.757399,-3552.988522,-8956.491898,1225.752797
6213.757721,-3701.029710,-8586.388927,919.314598
6213.758043,-3478.967927,-9104.533087,689.485948
6213.758364,-3404.947333,-8512.368333,536.266849
6213.758686,-3256.906145,-8734.430116,1149.143247
6213.759008,-3256.906145,-8808.450710,2221.676944
6213.759330,-3330.926739,-9030.512492,1455.581446
6213.759651,-2664.741391,-9252.574275,1608.800546
6213.759973,-2738.761985,-8808.450710,1455.581446
6213.760295,-2960.823768,-9178.553681,1608.800546
6213.760617,-2960.823768,-8438.347739,1532.190996
6213.760939,-3330.926739,-8290.306550,1532.190996
6213.761260,-3182.885551,-8364.327145,1608.800546
6213.761582,-3182.885551,-8438.347739,1608.800546
6213.761904,-3552.988522,-9178.553681,1838.629195
6213.762226,-3627.009116,-8956.491898,1225.752797
6213.762547,-3775.050304,-8956.491898,1225.752797
6213.762869,-3775.050304,-9104.533087,766.095498
6213.763191,-3256.906145,-8660.409521,1225.752797
6213.763513,-3108.864956,-8956.491898,1302.362347
6213.763834,-3108.864956,-8216.285956,1608.800546
6213.764156,-2590.720797,-8882.471304,1302.362347
6213.764478,-2738.761985,-9326.594869,1991.848295
6213.764800,-2590.720797,-9030.512492,1915.238745
6213.765121,-2664.741391,-9400.615463,2068.457845
6213.765443,-2886.803174,-9178.553681,2068.457845
6213.765765,-2590.720797,-8734.430116,2145.067394
6213.766087,-2886.803174,-8882.471304,2145.067394
6213.766409,-3552.988522,-8512.368333,459.657299
6213.766730,-4071.132681,-8364.327145,995.924147
6213.767052,-4515.256246,-8216.285956,306.438199
6213.767374,-4737.318029,-8438.347739,306.438199
6213.767696,-4589.276840,-8808.450710,383.047749
6213.768017,-5181.441594,-8512.368333,842.705048
6213.768339,-4663.297435,-9178.553681,153.219100
6213.768661,-4885.359217,-8660.409521,153.219100
6213.768983,-4219.173869,-9104.533087,229.828649
6213.769304,-3627.009116,-9030.512492,0.000000
6213.769626,-3330.926739,-9178.553681,76.609550
6213.769948,-3256.906145,-9252.574275,689.485948
6213.770270,-3034.844362,-8660.409521,1072.533697
6213.770592,-3108.864956,-9030.512492,919.314598
6213.770913,-2738.761985,-9178.553681,459.657299
6213.771235,-3034.844362,-9030.512492,459.657299
6213.771557,-3108.864956,-8882.471304,229.828649
6213.771879,-3775.050304,-8586.388927,689.485948
6213.772200,-3849.070898,-8586.388927,0.000000
6213.772522,-3849.070898,-8216.285956,0.000000
6213.772844,-3849.070898,-8956.491898,-995.924147
6213.773166,-3627.009116,-9326.594869,-383.047749
6213.773487,-4071.132681,-8882.471304,-612.876398
6213.773809,-3627.009116,-8808.450710,0.000000
6213.774131,-3478.967927,-9178.553681,229.828649
6213.774453,-3182.885551,-9326.594869,459.657299
6213.774774,-2886.803174,-9104.533087,536.266849
6213.775096,-2664.741391,-9178.553681,612.876398
6213.775418,-2368.659014,-8956.491898,536.266849
6213.775740,-2146.597232,-9918.759623,0.000000
6213.776062,-2368.659014,-9400.615463,383.047749
6213.776383,-2960.823768,-9178.553681,306.438199
6213.776705,-3108.864956,-9400.615463,612.876398
6213.777027,-3256.906145,-8734.430116,306.438199
6213.777349,-3330.926739,-8956.491898,536.266849
6213.777670,-3627.009116,-9104.533087,306.438199
6213.777992,-3923.091493,-8660.409521,-153.219100
6213.778314,-3849.070898,-8956.491898,-306.438199
6213.778636,-4219.173869,-8956.491898,229.828649
6213.778957,-3923.091493,-9030.512492,76.609550
6213.779279,-3701.029710,-9474.636058,306.438199
6213.779601,-3775.050304,-9400.615463,153.219100
6213.779923,-3478.967927,-9400.615463,842.705048
6213.780244,-3404.947333,-9548.656652,689.485948
6213.780566,-2960.823768,-9252.574275,919.314598
6213.780888,-2442.679609,-9844.739029,842.705048
6213.781210,-2960.823768,-8956.491898,766.095498
6213.781532,-3108.864956,-8808.450710,1072.533697
6213.781853,-3330.926739,-9030.512492,995.924147
6213.782175,-3552.988522,-8216.285956,1072.533697
6213.782497,-3552.988522,-9252.574275,1072.533697
6213.782818,-3849.070898,-8142.265362,1838.629195
6213.783140,-3627.009116,-8882.471304,1072.533697
6213.783462,-3997.112087,-8956.491898,766.095498
6213.783784,-3997.112087,-8364.327145,1072.533697
6213.784105,-3997.112087,-9030.512492,1378.971896
6213.784427,-3552.988522,-8956.491898,1225.752797
6213.784749,-4071.132681,-8734.430116,1455.581446
6213.785071,-3034.844362,-9770.718434,612.876398
6213.785392,-3404.947333,-8438.347739,1685.410096
6213.785714,-3627.009116,-8808.450710,1915.238745
6213.786036,-3478.967927,-8438.347739,2068.457845
6213.786358,-3108.864956,-8734.430116,1762.019645
6213.786679,-3108.864956,-8660.409521,1455.581446
6213.787001,-3330.926739,-8660.409521,612.876398
6213.787323,-3182.885551,-8438.347739,1149.143247
6213.787644,-2960.823768,-8364.327145,842.705048
6213.787966,-2960.823768,-8882.471304,1149.143247
6213.788288,-3627.009116,-8438.347739,1455.581446
6213.788610,-3923.091493,-8882.471304,1149.143247
6213.788931,-3478.967927,-8290.306550,1302.362347
6213.789253,-2738.761985,-9030.512492,919.314598
6213.789575,-3182.885551,-8956.491898,1608.800546
6213.789897,-3552.988522,-8734.430116,1915.238745
6213.790218,-4071.132681,-8660.409521,1762.019645
6213.790540,-2960.823768,-8660.409521,1532.190996
6213.790862,-2664.741391,-9178.553681,919.314598
6213.791183,-2960.823768,-8808.450710,1378.971896
6213.791505,-3256.906145,-9104.533087,1608.800546
6213.791827,-3108.864956,-8438.347739,1915.238745
6213.792149,-3478.967927,-8512.368333,1915.238745
6213.792470,-3552.988522,-9030.512492,766.095498
6213.792792,-3034.844362,-8660.409521,0.000000
6213.793114,-3034.844362,-8956.491898,536.266849
6213.793436,-3330.926739,-8882.471304,383.047749
6213.793757,-3627.009116,-8586.388927,459.657299
6213.794079,-3849.070898,-8882.471304,306.438199
6213.794401,-3775.050304,-8660.409521,306.438199
6213.794723,-3775.050304,-9104.533087,306.438199
6213.795044,-4219.173869,-9030.512492,-229.828649
6213.795366,-3923.091493,-9252.574275,153.219100
6213.795688,-3627.009116,-9474.636058,229.828649
6213.796009,-3775.050304,-9030.512492,229.828649
6213.796331,-3849.070898,-9474.636058,0.000000
6213.796653,-3552.988522,-9030.512492,0.000000
6213.796975,-3108.864956,-9252.574275,-306.438199
6213.797296,-3478.967927,-8808.450710,306.438199
6213.797618,-3997.112087,-8586.388927,383.047749
6213.797940,-4145.153275,-9252.574275,76.609550
6213.798262,-3923.091493,-8586.388927,0.000000
6213.798583,-4145.153275,-8808.450710,-612.876398
6213.798905,-3923.091493,-8956.491898,-689.485948
6213.799227,-3849.070898,-9030.512492,0.000000
6213.799548,-3849.070898,-9474.636058,-383.047749
6213.799870,-3775.050304,-9326.594869,0.000000
6213.800192,-3701.029710,-9770.718434,229.828649
6213.800514,-3478.967927,-9696.697840,153.219100
6213.800835,-3627.009116,-9474.636058,919.314598
6213.801157,-3330.926739,-9548.656652,0.000000
6213.801479,-3034.844362,-9104.533087,153.219100
6213.801801,-3256.906145,-8660.409521,383.047749
6213.802122,-3701.029710,-8290.306550,383.047749
6213.802444,-3701.029710,-8660.409521,919.314598
6213.802766,-3923.091493,-8660.409521,766.095498
6213.803088,-4367.215058,-8438.347739,766.095498
6213.803409,-4293.194464,-8734.430116,995.924147
6213.803731,-3997.112087,-8512.368333,-459.657299
6213.804053,-3701.029710,-9030.512492,0.000000
6213.804374,-3775.050304,-9104.533087,995.924147
6213.804696,-3775.050304,-8586.388927,1455.581446
6213.805018,-2960.823768,-9326.594869,919.314598
6213.805340,-2886.803174,-9178.553681,1149.143247
6213.805661,-2960.823768,-9696.697840,1072.533697
6213.805983,-2812.782580,-8734.430116,1302.362347
6213.806305,-2516.700203,-8808.450710,612.876398
6213.806627,-2294.638420,-8808.450710,2068.457845
6213.806948,-3182.885551,-8734.430116,1762.019645
6213.807270,-3478.967927,-8660.409521,1608.800546
6213.807592,-2960.823768,-8068.244768,1225.752797
6213.807913,-3034.844362,-8438.347739,1608.800546
6213.808235,-3182.885551,-8364.327145,2221.676944
6213.808557,-3330.926739,-8364.327145,1838.629195
6213.808879,-3849.070898,-8660.409521,1608.800546
6213.809200,-3478.967927,-8808.450710,919.314598
6213.809522,-3034.844362,-8734.430116,842.705048
6213.809844,-3256.906145,-8882.471304,1072.533697
6213.810166,-3108.864956,-8808.450710,1072.533697
6213.810487,-2516.700203,-9474.636058,1378.971896
6213.810809,-2368.659014,-9178.553681,1378.971896
6213.811131,-2516.700203,-9400.615463,1149.143247
6213.811453,-2886.803174,-9030.512492,1991.848295
6213.811774,-2664.741391,-8586.388927,995.924147
6213.812096,-2664.741391,-9178.553681,1072.533697
6213.812418,-3478.967927,-8882.471304,1302.362347
6213.812739,-3552.988522,-8364.327145,1225.752797
6213.813061,-3330.926739,-8882.471304,1455.581446
6213.813383,-3923.091493,-8734.430116,1685.410096
6213.813705,-3701.029710,-8956.491898,689.485948
6213.814026,-3552.988522,-9030.512492,229.828649
6213.814348,-3775.050304,-8808.450710,995.924147
6213.814670,-3775.050304,-9400.615463,766.095498
6213.814992,-3775.050304,-9104.533087,689.485948
6213.815313,-3478.967927,-9178.553681,306.438199
6213.815635,-3552.988522,-9030.512492,459.657299
6213.815957,-3701.029710,-9030.512492,919.314598
6213.816278,-3923.091493,-9178.553681,1302.362347
6213.816600,-3330.926739,-9104.533087,1072.533697
6213.816922,-3478.967927,-9326.594869,1455.581446
6213.817244,-3478.967927,-9104.533087,1225.752797
6213.817565,-3478.967927,-9104.533087,842.705048
6213.817887,-3478.967927,-9104.533087,689.485948
6213.818209,-3034.844362,-9030.512492,383.047749
6213.818531,-3478.967927,-9474.636058,612.876398
6213.818852,-3552.988522,-9104.533087,842.705048
6213.819174,-3627.009116,-8956.491898,842.705048
6213.819496,-3627.009116,-9326.594869,459.657299
6213.819818,-3701.029710,-8734.430116,689.485948
6213.820139,-3404.947333,-9326.594869,995.924147
6213.820461,-4219.173869,-8512.368333,612.876398
6213.820783,-3849.070898,-8808.450710,1072.533697
6213.821104,-3775.050304,-9178.553681,842.705048
6213.821426,-3404.947333,-9030.512492,842.705048
6213.821748,-3330.926739,-9030.512492,689.485948
6213.822070,-3182.885551,-8882.471304,995.924147
6213.822391,-3034.844362,-8956.491898,842.705048
6213.822713,-2738.761985,-9030.512492,0.000000
6213.823035,-2886.803174,-8660.409521,229.828649
6213.823357,-2516.700203,-8364.327145,995.924147
6213.823678,-2812.782580,-8660.409521,1149.143247
6213.824000,-2960.823768,-8808.450710,1302.362347
6213.824322,-2886.803174,-8734.430116,1225.752797
6213.824644,-2960.823768,-8882.471304,1072.533697
6213.824965,-2886.803174,-8882.471304,766.095498
6213.825287,-3182.885551,-8512.368333,1225.752797
6213.825609,-3552.988522,-8882.471304,76.609550
6213.825930,-3552.988522,-9030.512492,1072.533697
6213.826252,-3552.988522,-8882.471304,995.924147
6213.826574,-3478.967927,-8660.409521,995.924147
6213.826896,-3552.988522,-8438.347739,153.219100
6213.827217,-3330.926739,-8364.327145,766.095498
6213.827539,-3478.967927,-7994.224174,306.438199
6213.827861,-3478.967927,-7698.141797,612.876398
6213.828183,-3478.967927,-8438.347739,766.095498
6213.828504,-3923.091493,-8512.368333,842.705048
6213.828826,-3997.112087,-8734.430116,612.876398
6213.829148,-4219.173869,-8364.327145,76.609550
6213.829469,-4367.215058,-8734.430116,459.657299
6213.829791,-4219.173869,-8882.471304,536.266849
6213.830113,-4441.235652,-9178.553681,229.828649
6213.830435,-4367.215058,-8808.450710,0.000000
6213.830756,-4145.153275,-9178.553681,0.000000
6213.831078,-4071.132681,-9326.594869,153.219100
6213.831400,-3701.029710,-9326.594869,153.219100
6213.831722,-3404.947333,-9400.615463,76.609550
6213.832043,-3997.112087,-8586.388927,536.266849
6213.832365,-3849.070898,-9030.512492,459.657299
6213.832687,-3552.988522,-8734.430116,0.000000
6213.833009,-3478.967927,-9400.615463,229.828649
6213.833330,-3404.947333,-9104.533087,0.000000
6213.833652,-3330.926739,-9178.553681,153.219100
6213.833974,-3182.885551,-9252.574275,383.047749
6213.834295,-3552.988522,-9030.512492,995.924147
6213.834617,-3404.947333,-9622.677246,1072.533697
6213.834939,-3478.967927,-9400.615463,383.047749
6213.835261,-3478.967927,-9474.636058,689.485948
6213.835582,-3256.906145,-9400.615463,383.047749
6213.835904,-3404.947333,-9252.574275,459.657299
6213.836226,-3775.050304,-9474.636058,229.828649
6213.836548,-3701.029710,-9548.656652,0.000000
6213.836869,-3478.967927,-8660.409521,842.705048
6213.837191,-3256.906145,-8808.450710,919.314598
6213.837513,-3034.844362,-8660.409521,612.876398
6213.837834,-2960.823768,-8956.491898,919.314598
6213.838156,-3404.947333,-9326.594869,1072.533697
6213.838478,-3256.906145,-9326.594869,1455.581446
6213.838800,-2442.679609,-8808.450710,842.705048
6213.839121,-2960.823768,-8808.450710,1225.752797
6213.839443,-2886.803174,-8660.409521,1072.533697
6213.839765,-3034.844362,-8882.471304,1378.971896
6213.840087,-2960.823768,-8734.430116,1608.800546
6213.840408,-2886.803174,-8660.409521,919.314598
6213.840730,-3256.906145,-8956.491898,995.924147
6213.841052,-3627.009116,-8142.265362,1532.190996
6213.841374,-3701.029710,-8216.285956,1762.019645
6213.841695,-3849.070898,-8512.368333,1149.143247
6213.842017,-3182.885551,-8660.409521,1378.971896
6213.842339,-3256.906145,-8882.471304,1302.362347
6213.842660,-2960.823768,-8734.430116,1685.410096
6213.842982,-2738.761985,-8808.450710,1838.629195
6213.843304,-2516.700203,-8808.450710,1532.190996
6213.843626,-2960.823768,-9104.533087,1838.629195
6213.843947,-3034.844362,-8290.306550,1838.629195
6213.844269,-3182.885551,-8956.491898,2451.505594
6213.844591,-3256.906145,-8734.430116,1838.629195
6213.844913,-3775.050304,-8216.285956,1608.800546
6213.845234,-4367.215058,-7772.162391,1302.362347
6213.845556,-4663.297435,-7772.162391,1072.533697
6213.845878,-5107.421000,-7994.224174,229.828649
6213.846199,-4959.379811,-7476.080014,766.095498
6213.846521,-5033.400406,-8216.285956,-306.438199
6213.846843,-5477.523971,-7772.162391,229.828649
6213.847165,-5477.523971,-8290.306550,306.438199
6213.847486,-5403.503377,-8586.388927,76.609550
6213.847808,-5107.421000,-8586.388927,229.828649
6213.848130,-4441.235652,-8438.347739,229.828649
6213.848452,-4367.215058,-8068.244768,76.609550
6213.848773,-4589.276840,-8586.388927,306.438199
6213.849095,-4293.194464,-8290.306550,383.047749
6213.849417,-4293.194464,-8586.388927,0.000000
6213.849739,-4219.173869,-8660.409521,0.000000
6213.850060,-4071.132681,-8660.409521,0.000000
6213.850382,-4145.153275,-8808.450710,383.047749
6213.850704,-4515.256246,-8216.285956,0.000000
6213.851025,-4441.235652,-8438.347739,-459.657299
6213.851347,-3997.112087,-8808.450710,-919.314598
6213.851669,-3923.091493,-9030.512492,-766.095498
6213.851991,-4219.173869,-9030.512492,-766.095498
6213.852312,-3997.112087,-9400.615463,-995.924147
6213.852634,-3997.112087,-9030.512492,-689.485948
6213.852956,-3997.112087,-9400.615463,-306.438199
6213.853278,-3701.029710,-9178.553681,-995.924147
6213.853599,-3108.864956,-9474.636058,0.000000
6213.853921,-3404.947333,-9104.533087,-383.047749
6213.854243,-3330.926739,-8882.471304,-229.828649
6213.854564,-3330.926739,-9178.553681,-306.438199
6213.854886,-3627.009116,-8808.450710,-689.485948
6213.855208,-3997.112087,-9474.636058,0.000000
6213.855530,-4071.132681,-9104.533087,-612.876398
6213.855851,-4145.153275,-8956.491898,-383.047749
6213.856173,-3923.091493,-9178.553681,-1225.752797
6213.856495,-4293.194464,-9326.594869,-1072.533697
6213.856817,-4367.215058,-9252.574275,-919.314598
6213.857138,-4145.153275,-9178.553681,-919.314598
6213.857460,-4071.132681,-9474.636058,-842.705048
6213.857782,-3775.050304,-9326.594869,-842.705048
6213.858104,-3182.885551,-9178.553681,-459.657299
6213.858425,-3256.906145,-8808.450710,-1225.752797
6213.858747,-3108.864956,-9030.512492,0.000000
6213.859069,-3330.926739,-9104.533087,76.609550
6213.859390,-3256.906145,-8956.491898,153.219100
6213.859712,-3182.885551,-8956.491898,0.000000
6213.860034,-2960.823768,-8882.471304,0.000000
6213.860356,-3256.906145,-8512.368333,306.438199
6213.860677,-3552.988522,-8068.244768,689.485948
6213.860999,-3478.967927,-9104.533087,153.219100
6213.861321,-3849.070898,-8660.409521,383.047749
6213.861643,-3923.091493,-8734.430116,536.266849
6213.861964,-3997.112087,-8734.430116,612.876398
6213.862286,-4071.132681,-8512.368333,995.924147
6213.862608,-4515.256246,-8586.388927,919.314598
6213.862929,-4811.338623,-8364.327145,1072.533697
6213.863251,-4145.153275,-8660.409521,919.314598
6213.863573,-4145.153275,-8290.306550,842.705048
6213.863895,-4071.132681,-8216.285956,1149.143247
6213.864216,-4145.153275,-8364.327145,1072.533697
6213.864538,-4219.173869,-7920.203579,1302.362347
6213.864860,-4515.256246,-8364.327145,919.314598
6213.865182,-4515.256246,-7846.182985,306.438199
6213.865503,-4737.318029,-8290.306550,612.876398
6213.865825,-4959.379811,-7994.224174,766.095498
6213.866147,-5107.421000,-8068.244768,1225.752797
6213.866469,-5033.400406,-8364.327145,612.876398
6213.866790,-4811.338623,-8290.306550,153.219100
6213.867112,-4811.338623,-8438.347739,612.876398
6213.867434,-4515.256246,-8216.285956,1455.581446
6213.867755,-4737.318029,-8068.244768,306.438199
6213.868077,-4515.256246,-8586.388927,995.924147
6213.868399,-4441.235652,-8438.347739,536.266849
6213.868721,-4071.132681,-9030.512492,919.314598
6213.869042,-3627.009116,-8734.430116,842.705048
6213.869364,-3627.009116,-8734.430116,689.485948
6213.869686,-3552.988522,-8734.430116,1532.190996
6213.870008,-3404.947333,-8956.491898,536.266849
6213.870329,-3182.885551,-8882.471304,0.000000
6213.870651,-3404.947333,-8734.430116,842.705048
6213.870973,-3701.029710,-8882.471304,612.876398
6213.871294,-3330.926739,-8512.368333,459.657299
6213.871616,-3478.967927,-9104.533087,306.438199
6213.871938,-3552.988522,-8068.244768,766.095498
6213.872260,-3182.885551,-8956.491898,995.924147
6213.872581,-4145.153275,-8660.409521,689.485948
6213.872903,-3478.967927,-8956.491898,229.828649
6213.873225,-3182.885551,-9474.636058,0.000000
6213.873547,-3182.885551,-9030.512492,229.828649
6213.873868,-3701.029710,-9400.615463,306.438199
6213.874190,-3034.844362,-9178.553681,229.828649
6213.874512,-3108.864956,-9104.533087,612.876398
6213.874834,-3108.864956,-9252.574275,76.609550
6213.875155,-3552.988522,-8734.430116,0.000000
6213.875477,-3552.988522,-9030.512492,229.828649
6213.875799,-3627.009116,-8808.450710,153.219100
6213.876120,-3701.029710,-8808.450710,153.219100
6213.876442,-3997.112087,-8512.368333,383.047749
6213.876764,-4145.153275,-8364.327145,0.000000
6213.877086,-4589.276840,-8216.285956,0.000000
6213.877407,-3923.091493,-8882.471304,0.000000
6213.877729,-4293.194464,-8882.471304,-153.219100
6213.878051,-4441.235652,-8660.409521,0.000000
6213.878373,-4219.173869,-9178.553681,0.000000
6213.878694,-3923.091493,-8734.430116,76.609550
6213.879016,-4071.132681,-9326.594869,-612.876398
6213.879338,-4219.173869,-8586.388927,-842.705048
6213.879659,-3849.070898,-8586.388927,-536.266849
6213.879981,-4293.194464,-8808.450710,0.000000
6213.880303,-4071.132681,-8512.368333,0.000000
6213.880625,-3775.050304,-8956.491898,-306.438199
6213.880946,-3923.091493,-8882.471304,76.609550
6213.881268,-4441.235652,-8364.327145,536.266849
6213.881590,-3627.009116,-8216.285956,842.705048
6213.881912,-4663.297435,-8290.306550,0.000000
6213.882233,-4219.173869,-8808.450710,-306.438199
6213.882555,-4885.359217,-8290.306550,229.828649
6213.882877,-4663.297435,-8734.430116,0.000000
6213.883198,-4219.173869,-8438.347739,-459.657299
6213.883520,-4219.173869,-9030.512492,0.000000
6213.883842,-4367.215058,-8660.409521,-459.657299
6213.884164,-4737.318029,-8512.368333,383.047749
6213.884485,-4515.256246,-8512.368333,-229.828649
6213.884807,-4367.215058,-8216.285956,0.000000
6213.885129,-4145.153275,-8808.450710,-383.047749
6213.885450,-3997.112087,-8290.306550,0.000000
6213.885772,-3849.070898,-8882.471304,459.657299
6213.886094,-4589.276840,-7772.162391,536.266849
6213.886415,-4219.173869,-8512.368333,459.657299
6213.886737,-3923.091493,-9030.512492,-229.828649
6213.887059,-3627.009116,-8882.471304,76.609550
6213.887381,-3552.988522,-8956.491898,229.828649
6213.887702,-3330.926739,-8586.388927,459.657299
6213.888024,-3775.050304,-8512.368333,383.047749
6213.888346,-3849.070898,-9030.512492,459.657299
6213.888667,-3330.926739,-8882.471304,459.657299
6213.888989,-2960.823768,-9030.512492,0.000000
6213.889311,-3404.947333,-9030.512492,229.828649
6213.889633,-3627.009116,-8734.430116,383.047749
6213.889954,-3256.906145,-9030.512492,919.314598
6213.890276,-3627.009116,-9252.574275,842.705048
6213.890598,-3034.844362,-8808.450710,842.705048
6213.890919,-2738.761985,-9104.533087,919.314598
6213.891241,-2812.782580,-8808.450710,1838.629195
6213.891563,-3552.988522,-8882.471304,1072.533697
6213.891884,-3182.885551,-9030.512492,1532.190996
6213.892206,-3404.947333,-9104.533087,1225.752797
6213.892528,-3627.009116,-8882.471304,842.705048
6213.892850,-4219.173869,-8290.306550,536.266849
6213.893171,-3849.070898,-8512.368333,383.047749
6213.893493,-4219.173869,-8364.327145,76.609550
6213.893815,-4515.256246,-8586.388927,536.266849
6213.894136,-4367.215058,-8660.409521,995.924147
6213.894458,-4663.297435,-8364.327145,689.485948
6213.894780,-3923.091493,-8438.347739,306.438199
6213.895102,-3923.091493,-8364.327145,0.000000
6213.895423,-4071.132681,-8882.471304,919.314598
6213.895745,-3775.050304,-8660.409521,459.657299
6213.896067,-4145.153275,-8364.327145,459.657299
6213.896388,-4145.153275,-8290.306550,1149.143247
6213.896710,-3627.009116,-8068.244768,536.266849
6213.897032,-3256.906145,-8956.491898,306.438199
6213.897354,-3478.967927,-8808.450710,76.609550
6213.897675,-3923.091493,-8512.368333,536.266849
6213.897997,-3849.070898,-8808.450710,1072.533697
6213.898319,-3701.029710,-7772.162391,153.219100
6213.898640,-3552.988522,-8660.409521,153.219100
6213.898962,-4219.173869,-8364.327145,0.000000
6213.899284,-3997.112087,-8734.430116,153.219100
6213.899605,-3923.091493,-8438.347739,0.000000
6213.899927,-4219.173869,-8660.409521,459.657299
6213.900249,-4515.256246,-8660.409521,612.876398
6213.900571,-4293.194464,-8512.368333,0.000000
6213.900892,-3997.112087,-9178.553681,-306.438199
6213.901214,-4367.215058,-8660.409521,0.000000
6213.901536,-4367.215058,-9030.512492,-306.438199
6213.901857,-4219.173869,-9326.594869,76.609550
6213.902179,-3997.112087,-9104.533087,459.657299
6213.902501,-3775.050304,-8734.430116,76.609550
6213.902823,-3478.967927,-8734.430116,153.219100
6213.903144,-3552.988522,-8808.450710,-459.657299
6213.903466,-4219.173869,-8438.347739,0.000000
6213.903788,-4071.132681,-8882.471304,229.828649
6213.904109,-4293.194464,-9178.553681,153.219100
6213.904431,-4515.256246,-8512.368333,0.000000
6213.904753,-4737.318029,-8808.450710,0.000000
6213.905074,-3997.112087,-8734.430116,-306.438199
6213.905396,-4737.318029,-8438.347739,-766.095498
6213.905718,-4959.379811,-9252.574275,-383.047749
6213.906040,-4737.318029,-8290.306550,-229.828649
6213.906361,-4367.215058,-8808.450710,76.609550
6213.906683,-4441.235652,-8512.368333,0.000000
6213.907005,-4219.173869,-8808.450710,0.000000
6213.907326,-3627.009116,-8956.491898,0.000000
6213.907648,-4071.132681,-8808.450710,-459.657299
6213.907970,-3775.050304,-8956.491898,76.609550
6213.908292,-3478.967927,-8734.430116,-306.438199
6213.908613,-3627.009116,-9030.512492,0.000000
6213.908935,-3775.050304,-8512.368333,0.000000
6213.909257,-3552.988522,-9030.512492,76.609550
6213.909578,-3701.029710,-9104.533087,76.609550
6213.909900,-3627.009116,-8660.409521,76.609550
6213.910222,-3923.091493,-8956.491898,0.000000
6213.910543,-3997.112087,-8216.285956,536.266849
6213.910865,-4071.132681,-8956.491898,0.000000
6213.911187,-4071.132681,-8586.388927,0.000000
6213.911509,-4145.153275,-8586.388927,0.000000
6213.911830,-4441.235652,-8586.388927,0.000000
6213.912152,-4515.256246,-7994.224174,536.266849
6213.912474,-3330.926739,-9474.636058,0.000000
6213.912795,-4071.132681,-8734.430116,229.828649
6213.913117,-4071.132681,-8956.491898,383.047749
6213.913439,-3849.070898,-8364.327145,306.438199
6213.913761,-3775.050304,-8364.327145,153.219100
6213.914082,-3701.029710,-8586.388927,229.828649
6213.914404,-3552.988522,-8660.409521,76.609550
6213.914726,-3997.112087,-8586.388927,459.657299
6213.915047,-4515.256246,-8290.306550,842.705048
6213.915369,-4441.235652,-8882.471304,689.485948
6213.915691,-3923.091493,-8882.471304,0.000000
6213.916013,-4071.132681,-8882.471304,229.828649
6213.916334,-3849.070898,-8882.471304,383.047749
6213.916656,-4071.132681,-8512.368333,153.219100
6213.916978,-3849.070898,-8660.409521,842.705048
6213.917299,-4515.256246,-8586.388927,536.266849
6213.917621,-4367.215058,-8660.409521,229.828649
6213.917943,-4071.132681,-8734.430116,153.219100
6213.918264,-4219.173869,-8734.430116,76.609550
6213.918586,-4293.194464,-8956.491898,76.609550
6213.918908,-4367.215058,-7994.224174,689.485948
6213.919230,-4367.215058,-8364.327145,536.266849
6213.919551,-4589.276840,-8142.265362,-153.219100
6213.919873,-4663.297435,-8364.327145,153.219100
6213.920195,-4737.318029,-8882.471304,0.000000
6213.920516,-4293.194464,-8660.409521,306.438199
6213.920838,-4367.215058,-9252.574275,153.219100
6213.921160,-4441.235652,-8808.450710,153.219100
6213.921482,-3923.091493,-9030.512492,-459.657299
6213.921803,-3775.050304,-8882.471304,0.000000
6213.922125,-3701.029710,-8660.409521,153.219100
6213.922447,-3478.967927,-9326.594869,0.000000
6213.922768,-3701.029710,-8734.430116,229.828649
6213.923090,-3923.091493,-8956.491898,536.266849
6213.923412,-3775.050304,-9030.512492,459.657299
6213.923733,-3404.947333,-8956.491898,842.705048
6213.924055,-3627.009116,-8956.491898,995.924147
6213.924377,-4219.173869,-8216.285956,383.047749
6213.924699,-3701.029710,-8586.388927,229.828649
6213.925020,-3701.029710,-8734.430116,229.828649
6213.925342,-3775.050304,-8808.450710,459.657299
6213.925664,-3849.070898,-8808.450710,229.828649
6213.925985,-3701.029710,-8808.450710,153.219100
6213.926307,-3627.009116,-8882.471304,153.219100
6213.926629,-3182.885551,-9400.615463,536.266849
6213.926951,-3330.926739,-8882.471304,536.266849
6213.927272,-3627.009116,-8808.450710,612.876398
6213.927594,-3775.050304,-8808.450710,689.485948
6213.927916,-3552.988522,-8586.388927,306.438199
6213.928237,-3478.967927,-8956.491898,306.438199
6213.928559,-3849.070898,-8734.430116,536.266849
6213.928881,-3849.070898,-8512.368333,536.266849
6213.929202,-3552.988522,-8956.491898,612.876398
6213.929524,-3997.112087,-8216.285956,612.876398
6213.929846,-4219.173869,-8808.450710,536.266849
6213.930168,-4219.173869,-8438.347739,229.828649
6213.930489,-4071.132681,-8438.347739,459.657299
6213.930811,-4515.256246,-8586.388927,306.438199
6213.931133,-3849.070898,-8290.306550,306.438199
6213.931454,-4515.256246,-8586.388927,0.000000
6213.931776,-4145.153275,-8660.409521,0.000000
6213.932098,-4367.215058,-8808.450710,153.219100
6213.932420,-4515.256246,-8586.388927,0.000000
6213.932741,-4219.173869,-8734.430116,0.000000
6213.933063,-3923.091493,-8808.450710,76.609550
6213.933385,-3849.070898,-8512.368333,766.095498
6213.933706,-3330.926739,-9252.574275,153.219100
6213.934028,-3923.091493,-8586.388927,153.219100
6213.934350,-3404.947333,-8808.450710,0.000000
6213.934671,-3923.091493,-8956.491898,306.438199
6213.934993,-4145.153275,-8734.430116,76.609550
6213.935315,-4145.153275,-9178.553681,0.000000
6213.935637,-4145.153275,-8512.368333,76.609550
6213.935958,-3701.029710,-9178.553681,-766.095498
6213.936280,-3849.070898,-8512.368333,459.657299
6213.936602,-3775.050304,-8586.388927,0.000000
6213.936923,-3997.112087,-8808.450710,0.000000
6213.937245,-4071.132681,-8586.388927,0.000000
6213.937567,-3923.091493,-8808.450710,76.609550
6213.937889,-4071.132681,-8586.388927,153.219100
6213.938210,-3923.091493,-8882.471304,383.047749
6213.938532,-3923.091493,-8512.368333,0.000000
6213.938854,-4145.153275,-8512.368333,0.000000
6213.939175,-3923.091493,-8586.388927,383.047749
6213.939497,-3701.029710,-8734.430116,0.000000
6213.939819,-3404.947333,-9474.636058,0.000000
6213.940141,-3108.864956,-9326.594869,76.609550
6213.940462,-3034.844362,-9474.636058,306.438199
6213.940784,-2960.823768,-9474.636058,766.095498
6213.941106,-2072.576638,-9770.718434,766.095498
6213.941427,-2146.597232,-10066.800811,536.266849
6213.941749,-2368.659014,-9326.594869,1149.143247
6213.942071,-2368.659014,-9474.636058,1302.362347
6213.942392,-2516.700203,-9252.574275,1149.143247
6213.942714,-2738.761985,-9178.553681,1149.143247
6213.943036,-3108.864956,-9548.656652,842.705048
6213.943358,-2886.803174,-8882.471304,842.705048
6213.943679,-3627.009116,-8808.450710,1225.752797
6213.944001,-3627.009116,-8734.430116,1072.533697
6213.944323,-3627.009116,-8808.450710,1378.971896
6213.944644,-3552.988522,-8734.430116,1378.971896
6213.944966,-3256.906145,-8734.430116,1149.143247
6213.945288,-3552.988522,-8734.430116,459.657299
6213.945610,-3034.844362,-8586.388927,689.485948
6213.945931,-3108.864956,-9844.739029,919.314598
6213.946253,-3552.988522,-8956.491898,919.314598
6213.946575,-3330.926739,-9326.594869,1685.410096
6213.946896,-3256.906145,-9252.574275,1608.800546
6213.947218,-3478.967927,-8808.450710,1608.800546
6213.947540,-2960.823768,-8808.450710,1608.800546
6213.947861,-3478.967927,-8364.327145,1455.581446
6213.948183,-3997.112087,-8512.368333,1302.362347
6213.948505,-3923.091493,-7920.203579,1532.190996
6213.948827,-3849.070898,-8438.347739,1532.190996
6213.949148,-3701.029710,-8512.368333,919.314598
6213.949470,-3701.029710,-8660.409521,1302.362347
6213.949792,-3849.070898,-8734.430116,2068.457845
6213.950113,-3478.967927,-8068.244768,2145.067394
6213.950435,-3034.844362,-8734.430116,1915.238745
6213.950757,-2516.700203,-9030.512492,919.314598
6213.951079,-3034.844362,-9104.533087,1608.800546
6213.951400,-2664.741391,-8882.471304,1532.190996
6213.951722,-2442.679609,-9178.553681,1762.019645
6213.952044,-2590.720797,-9104.533087,1991.848295
6213.952365,-3108.864956,-8882.471304,2221.676944
6213.952687,-2590.720797,-9178.553681,2068.457845
6213.953009,-3108.864956,-8808.450710,1608.800546
6213.953330,-3404.947333,-8290.306550,1378.971896
6213.953652,-3997.112087,-8142.265362,1072.533697
6213.953974,-4441.235652,-7698.141797,1072.533697
6213.954296,-4589.276840,-8364.327145,919.314598
6213.954617,-4811.338623,-7698.141797,383.047749
6213.954939,-4589.276840,-8660.409521,919.314598
6213.955261,-4293.194464,-7994.224174,919.314598
6213.955582,-4515.256246,-8586.388927,919.314598
6213.955904,-4441.235652,-8956.491898,612.876398
6213.956226,-3849.070898,-8956.491898,536.266849
6213.956548,-3552.988522,-9178.553681,536.266849
6213.956869,-3627.009116,-9178.553681,383.047749
6213.957191,-3034.844362,-8956.491898,0.000000
6213.957513,-3256.906145,-9252.574275,-229.828649
6213.957834,-3034.844362,-9622.677246,306.438199
6213.958156,-3330.926739,-9474.636058,229.828649
6213.958478,-3330.926739,-9326.594869,306.438199
6213.958800,-3330.926739,-9474.636058,0.000000
6213.959121,-3182.885551,-9252.574275,-383.047749
6213.959443,-3330.926739,-9400.615463,-766.095498
6213.959765,-3404.947333,-8586.388927,76.609550
6213.960086,-3627.009116,-9104.533087,153.219100
6213.960408,-3849.070898,-8734.430116,0.000000
6213.960730,-3478.967927,-9178.553681,0.000000
6213.961051,-3404.947333,-9400.615463,0.000000
6213.961373,-3256.906145,-9104.533087,-153.219100
6213.961695,-3108.864956,-9474.636058,0.000000
6213.962017,-2516.700203,-9474.636058,153.219100
6213.962338,-2368.659014,-9400.615463,-229.828649
6213.962660,-2368.659014,-9400.615463,229.828649
6213.962982,-2738.761985,-9326.594869,306.438199
6213.963303,-2812.782580,-9770.718434,76.609550
6213.963625,-3182.885551,-9178.553681,229.828649
6213.963947,-3478.967927,-9252.574275,153.219100
6213.964269,-3404.947333,-8586.388927,689.485948
6213.964590,-3330.926739,-8660.409521,153.219100
6213.964912,-3330.926739,-8660.409521,229.828649
6213.965234,-3404.947333,-8882.471304,0.000000
6213.965555,-3701.029710,-8808.450710,0.000000
6213.965877,-3849.070898,-8586.388927,153.219100
6213.966199,-3849.070898,-8956.491898,383.047749
6213.966520,-3701.029710,-8734.430116,383.047749
6213.966842,-3627.009116,-9622.677246,459.657299
6213.967164,-3849.070898,-9030.512492,842.705048
6213.967486,-3701.029710,-9252.574275,842.705048
6213.967807,-3478.967927,-9030.512492,459.657299
6213.968129,-3108.864956,-9400.615463,612.876398
6213.968451,-3330.926739,-8808.450710,1072.533697
6213.968772,-2960.823768,-8956.491898,1455.581446
6213.969094,-2812.782580,-9400.615463,536.266849
6213.969416,-3034.844362,-8808.450710,1225.752797
6213.969738,-3182.885551,-8734.430116,2068.457845
6213.970059,-3330.926739,-8290.306550,1302.362347
6213.970381,-3627.009116,-8660.409521,1455.581446
6213.970703,-3701.029710,-8438.347739,1302.362347
6213.971024,-3849.070898,-8660.409521,1378.971896
6213.971346,-3923.091493,-8660.409521,842.705048
6213.971668,-4219.173869,-8290.306550,919.314598
6213.971989,-4367.215058,-7994.224174,1149.143247
6213.972311,-4071.132681,-8586.388927,1302.362347
6213.972633,-3701.029710,-8734.430116,1072.533697
6213.972955,-3701.029710,-8882.471304,1225.752797
6213.973276,-3404.947333,-8882.471304,2298.286494
6213.973598,-3701.029710,-8438.347739,1762.019645
6213.973920,-2590.720797,-8956.491898,1915.238745
6213.974241,-2664.741391,-9326.594869,995.924147
6213.974563,-3034.844362,-8660.409521,1685.410096
6213.974885,-3330.926739,-8882.471304,1685.410096
6213.975207,-3330.926739,-8808.450710,1532.190996
6213.975528,-2886.803174,-8586.388927,1225.752797
6213.975850,-3034.844362,-8956.491898,1455.581446
6213.976172,-3627.009116,-8882.471304,1225.752797
6213.976493,-3701.029710,-8290.306550,1532.190996
6213.976815,-3552.988522,-8956.491898,1302.362347
6213.977137,-3108.864956,-8512.368333,995.924147
6213.977458,-2960.823768,-9030.512492,995.924147
6213.977780,-3552.988522,-9030.512492,1455.581446
6213.978102,-3330.926739,-8808.450710,1762.019645
6213.978424,-3034.844362,-8808.450710,1149.143247
6213.978745,-2960.823768,-9400.615463,919.314598
6213.979067,-3108.864956,-9178.553681,536.266849
6213.979389,-3330.926739,-9252.574275,1225.752797
6213.979710,-3034.844362,-8660.409521,919.314598
6213.980032,-2368.659014,-8586.388927,766.095498
6213.980354,-2738.761985,-8956.491898,1149.143247
6213.980676,-3330.926739,-8586.388927,995.924147
6213.980997,-3849.070898,-8660.409521,1378.971896
6213.981319,-4071.132681,-8586.388927,229.828649
6213.981641,-4145.153275,-8734.430116,-153.219100
6213.981962,-4293.194464,-9178.553681,-153.219100
6213.982284,-4515.256246,-8956.491898,0.000000
6213.982606,-4441.235652,-9400.615463,-229.828649
6213.982928,-4293.194464,-9252.574275,-842.705048
6213.983249,-3701.029710,-9326.594869,-306.438199
6213.983571,-3108.864956,-9326.594869,-153.219100
6213.983893,-3108.864956,-9548.656652,229.828649
6213.984215,-3256.906145,-9770.718434,76.609550
6213.984536,-3552.988522,-9252.574275,383.047749
6213.984858,-4145.153275,-9400.615463,306.438199
6213.985180,-3849.070898,-8956.491898,459.657299
6213.985502,-4145.153275,-8586.388927,229.828649
6213.985823,-3775.050304,-8586.388927,-229.828649
6213.986145,-3997.112087,-8216.285956,0.000000
6213.986467,-4293.194464,-7994.224174,-689.485948
6213.986789,-3923.091493,-8438.347739,0.000000
6213.987110,-3997.112087,-8956.491898,229.828649
6213.987432,-4293.194464,-8956.491898,306.438199
6213.987754,-4219.173869,-9400.615463,383.047749
6213.988076,-3775.050304,-9030.512492,383.047749
6213.988397,-3182.885551,-9178.553681,766.095498
6213.988719,-3182.885551,-9474.636058,689.485948
6213.989041,-3330.926739,-8808.450710,766.095498
6213.989363,-3034.844362,-9474.636058,766.095498
6213.989684,-3330.926739,-8956.491898,766.095498
6213.990006,-2812.782580,-9326.594869,766.095498
6213.990328,-3034.844362,-9400.615463,842.705048
6213.990650,-3108.864956,-8882.471304,919.314598
6213.990971,-3108.864956,-9474.636058,689.485948
6213.991293,-3108.864956,-8068.244768,689.485948
6213.991615,-3552.988522,-8734.430116,689.485948
6213.991937,-3627.009116,-8956.491898,766.095498
6213.992258,-3627.009116,-8808.450710,612.876398
6213.992580,-3256.906145,-8956.491898,1072.533697
6213.992902,-3701.029710,-8586.388927,689.485948
6213.993224,-4071.132681,-9178.553681,1149.143247
6213.993545,-3182.885551,-8438.347739,1532.190996
6213.993867,-2886.803174,-9326.594869,1149.143247
6213.994189,-2738.761985,-9030.512492,1302.362347
6213.994511,-2664.741391,-8660.409521,1685.410096
6213.994832,-2442.679609,-9104.533087,2451.505594
6213.995154,-2812.782580,-8216.285956,2221.676944
6213.995476,-2442.679609,-8956.491898,2068.457845
6213.995798,-2220.617826,-8956.491898,1072.533697
6213.996119,-2886.803174,-8660.409521,1225.752797
6213.996441,-3256.906145,-8882.471304,1455.581446
6213.996763,-3182.885551,-8586.388927,1302.362347
6213.997085,-3256.906145,-8808.450710,766.095498
6213.997406,-3775.050304,-8660.409521,1149.143247
6213.997728,-3256.906145,-8882.471304,306.438199
6213.998050,-3108.864956,-8808.450710,1072.533697
6213.998372,-3478.967927,-8808.450710,919.314598
6213.998693,-3404.947333,-9104.533087,842.705048
6213.999015,-3330.926739,-8882.471304,1455.581446
6213.999337,-3330.926739,-9178.553681,1225.752797
6213.999659,-3182.885551,-8956.491898,1072.533697
6213.999980,-3478.967927,-8660.409521,1608.800546
6214.000302,-3256.906145,-8734.430116,1838.629195
6214.000624,-3775.050304,-8438.347739,1072.533697
6214.000946,-3256.906145,-9400.615463,1149.143247
6214.001267,-3404.947333,-9178.553681,1072.533697
6214.001589,-3552.988522,-9030.512492,919.314598
6214.001911,-3552.988522,-8660.409521,842.705048
6214.002233,-3627.009116,-8068.244768,689.485948
6214.002554,-3552.988522,-8808.450710,0.000000
6214.002876,-3552.988522,-8660.409521,766.095498
6214.003198,-3923.091493,-9030.512492,842.705048
6214.003520,-3775.050304,-9104.533087,842.705048
6214.003841,-3775.050304,-9104.533087,995.924147
6214.004163,-3627.009116,-9474.636058,919.314598
6214.004485,-3701.029710,-9178.553681,995.924147
6214.004807,-3478.967927,-9326.594869,1762.019645
6214.005128,-3330.926739,-9178.553681,1455.581446
6214.005450,-3256.906145,-8882.471304,1149.143247
6214.005772,-3182.885551,-9400.615463,1225.752797
6214.006094,-3256.906145,-9104.533087,919.314598
6214.006415,-3256.906145,-9400.615463,612.876398
6214.006737,-2960.823768,-8956.491898,919.314598
6214.007059,-3256.906145,-9252.574275,995.924147
6214.007381,-3256.906145,-8956.491898,306.438199
6214.007702,-3330.926739,-8808.450710,842.705048
6214.008024,-3627.009116,-9030.512492,612.876398
6214.008346,-3627.009116,-8586.388927,306.438199
6214.008668,-3627.009116,-9104.533087,536.266849
6214.008989,-3627.009116,-8956.491898,1072.533697
6214.009311,-3404.947333,-8734.430116,1149.143247
6214.009633,-3108.864956,-9326.594869,995.924147
6214.009955,-3034.844362,-8512.368333,1302.362347
6214.010276,-2738.761985,-8808.450710,1149.143247
6214.010598,-2738.761985,-8734.430116,1072.533697
6214.010920,-3034.844362,-8808.450710,1072.533697
6214.011242,-2886.803174,-8586.388927,1302.362347
6214.011563,-3108.864956,-7920.203579,842.705048
6214.011885,-3404.947333,-8142.265362,919.314598
6214.012207,-3849.070898,-7772.162391,689.485948
6214.012529,-4071.132681,-8142.265362,536.266849
6214.012850,-4145.153275,-7994.224174,612.876398
6214.013172,-4367.215058,-8364.327145,383.047749
6214.013494,-4515.256246,-8290.306550,76.609550
6214.013816,-4293.194464,-8512.368333,0.000000
6214.014137,-4071.132681,-8956.491898,-229.828649
6214.014459,-3849.070898,-9326.594869,-383.047749
6214.014781,-3627.009116,-9548.656652,229.828649
6214.015103,-3404.947333,-8808.450710,306.438199
6214.015424,-3108.864956,-9178.553681,383.047749
6214.015746,-2738.761985,-9400.615463,306.438199
6214.016068,-2812.782580,-8882.471304,612.876398
6214.016390,-3108.864956,-9252.574275,995.924147
6214.016711,-3627.009116,-8660.409521,1072.533697
6214.017033,-3256.906145,-9104.533087,919.314598
6214.017355,-3478.967927,-9326.594869,383.047749
6214.017677,-3478.967927,-9104.533087,229.828649
6214.017998,-3923.091493,-9474.636058,229.828649
6214.018320,-3997.112087,-8882.471304,-153.219100
6214.018642,-4071.132681,-9400.615463,-306.438199
6214.018964,-3478.967927,-9770.718434,-766.095498
6214.019285,-4145.153275,-8512.368333,0.000000
6214.019607,-3627.009116,-9252.574275,-153.219100
6214.019929,-3627.009116,-9178.553681,383.047749
6214.020251,-3478.967927,-9474.636058,689.485948
6214.020572,-3478.967927,-9474.636058,919.314598
6214.020894,-3330.926739,-9178.553681,919.314598
6214.021216,-3256.906145,-9178.553681,766.095498
6214.021538,-2590.720797,-8882.471304,919.314598
6214.021859,-2812.782580,-9030.512492,1838.629195
6214.022181,-3108.864956,-9252.574275,1455.581446
6214.022503,-3256.906145,-9030.512492,1072.533697
6214.022825,-3478.967927,-9104.533087,1149.143247
6214.023146,-3256.906145,-8956.491898,842.705048
6214.023468,-3108.864956,-8956.491898,689.485948
6214.023790,-3330.926739,-8734.430116,919.314598
6214.024112,-3478.967927,-8734.430116,612.876398
6214.024433,-3034.844362,-9030.512492,842.705048
6214.024755,-3627.009116,-8808.450710,1072.533697
6214.025077,-3701.029710,-9178.553681,1072.533697
6214.025399,-3552.988522,-8956.491898,1225.752797
6214.025720,-3182.885551,-8882.471304,1532.190996
6214.026042,-2960.823768,-9474.636058,1685.410096
6214.026364,-3108.864956,-8290.306550,2068.457845
6214.026686,-3108.864956,-8512.368333,1991.848295
6214.027007,-2738.761985,-8364.327145,1762.019645
6214.027329,-2738.761985,-8734.430116,1608.800546
6214.027651,-3256.906145,-8660.409521,1455.581446
6214.027973,-3330.926739,-8438.347739,1685.410096
6214.028294,-3404.947333,-8660.409521,1838.629195
6214.028616,-3034.844362,-8438.347739,1838.629195
6214.028938,-3701.029710,-9030.512492,1838.629195
6214.029260,-3849.070898,-8216.285956,1149.143247
6214.029581,-4293.194464,-8142.265362,995.924147
6214.029903,-4663.297435,-7994.224174,1149.143247
6214.030225,-4737.318029,-7624.121203,1149.143247
6214.030547,-4737.318029,-8142.265362,1302.362347
6214.030868,-4885.359217,-8290.306550,995.924147
6214.031190,-5255.462188,-7772.162391,842.705048
6214.031512,-5033.400406,-7994.224174,689.485948
6214.031833,-5255.462188,-7698.141797,306.438199
6214.032155,-4959.379811,-8216.285956,153.219100
6214.032477,-4811.338623,-7772.162391,0.000000
6214.032799,-4663.297435,-8364.327145,306.438199
6214.033120,-4811.338623,-7846.182985,76.609550
6214.033442,-4737.318029,-8068.244768,0.000000
6214.033764,-3997.112087,-9252.574275,153.219100
6214.034086,-4219.173869,-8882.471304,0.000000
6214.034407,-4219.173869,-9326.594869,-459.657299
6214.034729,-3923.091493,-8956.491898,-383.047749
6214.035051,-3923.091493,-8882.471304,-536.266849
6214.035373,-3701.029710,-9030.512492,-536.266849
6214.035694,-3627.009116,-9770.718434,-995.924147
6214.036016,-3849.070898,-9178.553681,-612.876398
6214.036338,-3701.029710,-9104.533087,-459.657299
6214.036660,-3923.091493,-9030.512492,-383.047749
6214.036981,-3627.009116,-9252.574275,-459.657299
6214.037303,-3701.029710,-9104.533087,-306.438199
6214.037625,-3330.926739,-9326.594869,-1149.143247
6214.037947,-3923.091493,-8956.491898,-306.438199
6214.038268,-3478.967927,-9326.594869,-536.266849
6214.038590,-4367.215058,-8660.409521,-612.876398
6214.038912,-4071.132681,-9104.533087,-842.705048
6214.039234,-3849.070898,-9548.656652,-842.705048
6214.039555,-3923.091493,-9104.533087,-689.485948
6214.039877,-4071.132681,-9474.636058,-383.047749
6214.040199,-3923.091493,-9252.574275,-919.314598
6214.040521,-3923.091493,-9104.533087,-995.924147
6214.040842,-3849.070898,-9326.594869,-1072.533697
6214.041164,-4145.153275,-9030.512492,-1072.533697
6214.041486,-3923.091493,-9326.594869,-766.095498
6214.041808,-3849.070898,-9104.533087,-842.705048
6214.042129,-3627.009116,-9252.574275,-536.266849
6214.042451,-3627.009116,-9252.574275,-766.095498
6214.042773,-3627.009116,-8956.491898,76.609550
6214.043095,-3627.009116,-9030.512492,0.000000
6214.043416,-3404.947333,-8734.430116,0.000000
6214.043738,-3478.967927,-9252.574275,306.438199
6214.044060,-3552.988522,-8882.471304,0.000000
6214.044382,-3404.947333,-9104.533087,153.219100
6214.044703,-3478.967927,-8882.471304,0.000000
6214.045025,-3330.926739,-8956.491898,306.438199
6214.045347,-3404.947333,-9326.594869,0.000000
6214.045669,-3849.070898,-8438.347739,306.438199
6214.045990,-3849.070898,-8438.347739,612.876398
6214.046312,-3923.091493,-8734.430116,842.705048
6214.046634,-4367.215058,-8438.347739,842.705048
6214.046956,-4145.153275,-8290.306550,919.314598
6214.047277,-3701.029710,-8290.306550,842.705048
6214.047599,-4293.194464,-8142.265362,766.095498
6214.047921,-3923.091493,-7920.203579,689.485948
6214.048243,-4293.194464,-7994.224174,919.314598
6214.048564,-4811.338623,-8216.285956,995.924147
6214.048886,-4811.338623,-7994.224174,1149.143247
6214.049208,-4737.318029,-8290.306550,536.266849
6214.049530,-4441.235652,-7772.162391,919.314598
6214.049851,-4811.338623,-7772.162391,1149.143247
6214.050173,-4589.276840,-8216.285956,995.924147
6214.050495,-4663.297435,-7846.182985,995.924147
6214.050817,-4589.276840,-8734.430116,995.924147
6214.051138,-4663.297435,-8142.265362,689.485948
6214.051460,-4663.297435,-8290.306550,842.705048
6214.051782,-4515.256246,-8586.388927,919.314598
6214.052104,-4367.215058,-7994.224174,995.924147
6214.052425,-4145.153275,-8438.347739,1302.362347
6214.052747,-4589.276840,-7846.182985,1149.143247
6214.053069,-4145.153275,-8512.368333,1302.362347
6214.053391,-3775.050304,-8586.388927,766.095498
6214.053712,-3775.050304,-8660.409521,919.314598
6214.054034,-3775.050304,-9030.512492,1149.143247
6214.054356,-3627.009116,-8660.409521,689.485948
6214.054678,-3330.926739,-8956.491898,919.314598
6214.054999,-3478.967927,-8882.471304,383.047749
6214.055321,-3256.906145,-9104.533087,536.266849
6214.055643,-3404.947333,-9252.574275,459.657299
6214.055965,-3404.947333,-8660.409521,459.657299
6214.056286,-3404.947333,-9178.553681,689.485948
6214.056608,-3404.947333,-9252.574275,229.828649
6214.056930,-3182.885551,-9178.553681,383.047749
6214.057252,-3330.926739,-9548.656652,919.314598
6214.057573,-3034.844362,-9178.553681,0.000000
6214.057895,-3330.926739,-8808.450710,0.000000
6214.058217,-3330.926739,-9104.533087,229.828649
6214.058539,-3552.988522,-8882.471304,459.657299
6214.058860,-3552.988522,-9252.574275,306.438199
6214.059182,-3627.009116,-8586.388927,229.828649
6214.059504,-3775.050304,-9252.574275,0.000000
6214.059826,-4219.173869,-8660.409521,0.000000
6214.060147,-3997.112087,-8956.491898,842.705048
6214.060469,-3997.112087,-9178.553681,0.000000
6214.060791,-4071.132681,-8882.471304,-153.219100
6214.061113,-3997.112087,-9178.553681,76.609550
6214.061434,-3849.070898,-8438.347739,-229.828649
6214.061756,-3997.112087,-8586.388927,-689.485948
6214.062078,-3997.112087,-8734.430116,0.000000
6214.062400,-3256.906145,-9030.512492,-229.828649
6214.062721,-3775.050304,-9178.553681,0.000000
6214.063043,-4293.194464,-8660.409521,153.219100
6214.063365,-3627.009116,-8808.450710,0.000000
6214.063687,-4071.132681,-8586.388927,0.000000
6214.064008,-4219.173869,-8512.368333,-459.657299
6214.064330,-4145.153275,-8660.409521,-459.657299
6214.064652,-3997.112087,-8512.368333,0.000000
6214.064974,-4367.215058,-8290.306550,-229.828649
6214.065295,-4663.297435,-8216.285956,0.000000
6214.065617,-5033.400406,-8586.388927,76.609550
6214.065939,-4515.256246,-8364.327145,-229.828649
6214.066261,-4737.318029,-8586.388927,-459.657299
6214.066582,-4441.235652,-8660.409521,-612.876398
6214.066904,-4589.276840,-8364.327145,-536.266849
6214.067226,-4663.297435,-8364.327145,0.000000
6214.067548,-4293.194464,-8364.327145,0.000000
6214.067869,-4145.153275,-8586.388927,-383.047749
6214.068191,-3997.112087,-8586.388927,-153.219100
6214.068513,-3997.112087,-8438.347739,459.657299
6214.068835,-3775.050304,-8956.491898,306.438199
6214.069156,-4219.173869,-8660.409521,0.000000
6214.069478,-4367.215058,-8882.471304,536.266849
6214.069800,-4441.235652,-8882.471304,0.000000
6214.070122,-3997.112087,-8956.491898,0.000000
6214.070443,-3627.009116,-8882.471304,0.000000
6214.070765,-3627.009116,-8438.347739,612.876398
6214.071087,-3627.009116,-8660.409521,919.314598
6214.071409,-3923.091493,-7846.182985,919.314598
6214.071730,-3849.070898,-8734.430116,995.924147
6214.072052,-3552.988522,-8734.430116,536.266849
6214.072374,-3627.009116,-8512.368333,612.876398
6214.072696,-3849.070898,-8882.471304,842.705048
6214.073017,-3552.988522,-9252.574275,766.095498
6214.073339,-3182.885551,-9400.615463,842.705048
6214.073661,-3182.885551,-9178.553681,766.095498
6214.073983,-2738.761985,-8808.450710,612.876398
6214.074304,-2294.638420,-9252.574275,995.924147
6214.074626,-2960.823768,-9252.574275,1072.533697
6214.074948,-3034.844362,-9178.553681,1378.971896
6214.075270,-2886.803174,-9030.512492,1302.362347
6214.075591,-3034.844362,-8586.388927,2068.457845
6214.075913,-4219.173869,-8364.327145,1608.800546
6214.076235,-3849.070898,-8068.244768,919.314598
6214.076557,-3775.050304,-8142.265362,383.047749
6214.076878,-4663.297435,-8068.244768,306.438199
6214.077200,-4811.338623,-8290.306550,229.828649
6214.077522,-4737.318029,-8586.388927,76.609550
6214.077844,-4663.297435,-8438.347739,229.828649
6214.078165,-4737.318029,-8808.450710,536.266849
6214.078487,-3997.112087,-8660.409521,306.438199
6214.078809,-3182.885551,-8734.430116,919.314598
6214.079131,-3108.864956,-9252.574275,919.314598
6214.079452,-3108.864956,-9104.533087,919.314598
6214.079774,-3182.885551,-8956.491898,1225.752797
6214.080096,-3256.906145,-8290.306550,1149.143247
6214.080418,-3034.844362,-8586.388927,995.924147
6214.080739,-3849.070898,-8068.244768,612.876398
6214.081061,-4367.215058,-8290.306550,76.609550
6214.081383,-4219.173869,-8068.244768,0.000000
6214.081705,-4737.318029,-7846.182985,0.000000
6214.082026,-4959.379811,-8216.285956,-229.828649
6214.082348,-4885.359217,-8216.285956,-153.219100
6214.082670,-4293.194464,-8956.491898,0.000000
6214.082992,-4219.173869,-8216.285956,153.219100
6214.083313,-3849.070898,-8660.409521,612.876398
6214.083635,-3923.091493,-8882.471304,383.047749
6214.083957,-4071.132681,-8882.471304,306.438199
6214.084279,-3923.091493,-9400.615463,0.000000
6214.084600,-3552.988522,-9252.574275,-306.438199
6214.084922,-3849.070898,-8586.388927,0.000000
6214.085244,-3923.091493,-8660.409521,536.266849
6214.085565,-4663.297435,-8068.244768,459.657299
6214.085887,-3627.009116,-8438.347739,76.609550
6214.086209,-3997.112087,-8512.368333,153.219100
6214.086531,-4219.173869,-8142.265362,0.000000
6214.086852,-4515.256246,-8586.388927,306.438199
6214.087174,-4589.276840,-8882.471304,-612.876398
6214.087496,-4515.256246,-9104.533087,-612.876398
6214.087817,-4737.318029,-9400.615463,-1302.362347
6214.088139,-4515.256246,-8586.388927,-1685.410096
6214.088461,-3627.009116,-9548.656652,-1072.533697
6214.088783,-4219.173869,-9104.533087,-536.266849
6214.089104,-4145.153275,-8956.491898,229.828649
6214.089426,-3627.009116,-9252.574275,229.828649
6214.089748,-3330.926739,-8808.450710,842.705048
6214.090069,-2960.823768,-9104.533087,0.000000
6214.090391,-2960.823768,-8586.388927,0.000000
6214.090713,-3034.844362,-8586.388927,383.047749
6214.091035,-3478.967927,-8882.471304,229.828649
6214.091356,-3701.029710,-8808.450710,229.828649
6214.091678,-3923.091493,-8956.491898,0.000000
6214.092000,-3701.029710,-8882.471304,306.438199
6214.092321,-4145.153275,-8808.450710,-153.219100
6214.092643,-3923.091493,-9104.533087,-689.485948
6214.092965,-3997.112087,-9030.512492,-612.876398
6214.093287,-4145.153275,-9326.594869,-536.266849
6214.093608,-3849.070898,-8882.471304,153.219100
6214.093930,-3997.112087,-9178.553681,229.828649
6214.094252,-3775.050304,-8734.430116,459.657299
6214.094573,-3108.864956,-8364.327145,459.657299
6214.094895,-3701.029710,-8512.368333,-383.047749
6214.095217,-3997.112087,-8364.327145,153.219100
6214.095539,-4145.153275,-8290.306550,459.657299
6214.095860,-4515.256246,-8216.285956,0.000000
6214.096182,-4589.276840,-8882.471304,229.828649
6214.096504,-4441.235652,-8586.388927,0.000000
6214.096825,-4293.194464,-8290.306550,0.000000
6214.097147,-4293.194464,-8290.306550,536.266849
6214.097469,-3849.070898,-8364.327145,229.828649
6214.097791,-3923.091493,-8660.409521,0.000000
6214.098112,-4071.132681,-8438.347739,76.609550
6214.098434,-4367.215058,-8808.450710,306.438199
6214.098756,-4515.256246,-8512.368333,383.047749
6214.099077,-4515.256246,-8586.388927,766.095498
6214.099399,-4367.215058,-8364.327145,612.876398
6214.099721,-4071.132681,-8216.285956,689.485948
6214.100043,-4515.256246,-7846.182985,383.047749
6214.100364,-4515.256246,-8068.244768,383.047749
6214.100686,-4663.297435,-8142.265362,76.609550
6214.101008,-4441.235652,-8290.306550,76.609550
6214.101329,-4589.276840,-8290.306550,153.219100
6214.101651,-4219.173869,-8290.306550,0.000000
6214.101973,-4145.153275,-8586.388927,536.266849
6214.102295,-4367.215058,-8586.388927,76.609550
6214.102616,-3923.091493,-9030.512492,153.219100
6214.102938,-4293.194464,-9030.512492,0.000000
6214.103260,-4071.132681,-8956.491898,0.000000
6214.103581,-3849.070898,-9326.594869,0.000000
6214.103903,-3849.070898,-9104.533087,229.828649
6214.104225,-3775.050304,-9252.574275,1378.971896
6214.104547,-3997.112087,-8660.409521,1072.533697
6214.104868,-3775.050304,-8808.450710,766.095498
6214.105190,-3182.885551,-9104.533087,612.876398
6214.105512,-3330.926739,-8882.471304,689.485948
6214.105833,-3404.947333,-8734.430116,536.266849
6214.106155,-3552.988522,-8438.347739,383.047749
6214.106477,-3775.050304,-8734.430116,-306.438199
6214.106799,-3775.050304,-8956.491898,0.000000
6214.107120,-3330.926739,-9178.553681,842.705048
6214.107442,-3552.988522,-9252.574275,229.828649
6214.107764,-3256.906145,-9326.594869,229.828649
6214.108085,-3256.906145,-9178.553681,612.876398
6214.108407,-3330.926739,-9178.553681,1072.533697
6214.108729,-3478.967927,-8956.491898,995.924147
6214.109051,-3330.926739,-9326.594869,536.266849
6214.109372,-3478.967927,-8808.450710,306.438199
6214.109694,-4145.153275,-8734.430116,536.266849
6214.110016,-3997.112087,-8808.450710,536.266849
6214.110337,-4145.153275,-8882.471304,612.876398
6214.110659,-3997.112087,-8956.491898,76.609550
6214.110981,-4219.173869,-8068.244768,76.609550
6214.111303,-3923.091493,-8142.265362,76.609550
6214.111624,-4145.153275,-7698.141797,-306.438199
6214.111946,-3923.091493,-8512.368333,229.828649
6214.112268,-3997.112087,-8586.388927,229.828649
6214.112589,-4071.132681,-8512.368333,306.438199
6214.112911,-3849.070898,-9252.574275,229.828649
6214.113233,-3923.091493,-8882.471304,0.000000
6214.113555,-4145.153275,-9326.594869,536.266849
6214.113876,-3849.070898,-9622.677246,0.000000
6214.114198,-4441.235652,-9030.512492,229.828649
6214.114520,-4145.153275,-8956.491898,229.828649
6214.114841,-4071.132681,-8512.368333,76.609550
6214.115163,-3997.112087,-8882.471304,229.828649
6214.115485,-4145.153275,-8290.306550,383.047749
6214.115807,-4293.194464,-8216.285956,459.657299
6214.116128,-4145.153275,-7994.224174,842.705048
6214.116450,-4811.338623,-8068.244768,383.047749
6214.116772,-4367.215058,-7994.224174,536.266849
6214.117093,-4441.235652,-8068.244768,306.438199
6214.117415,-4663.297435,-8438.347739,0.000000
6214.117737,-4515.256246,-7920.203579,229.828649
6214.118059,-4515.256246,-8512.368333,612.876398
6214.118380,-4441.235652,-8290.306550,0.000000
6214.118702,-4293.194464,-8956.491898,383.047749
6214.119024,-4367.215058,-9104.533087,-459.657299
6214.119345,-4219.173869,-8734.430116,153.219100
6214.119667,-3997.112087,-9030.512492,0.000000
6214.119989,-4145.153275,-8734.430116,153.219100
6214.120311,-3923.091493,-9252.574275,0.000000
6214.120632,-3034.844362,-8290.306550,229.828649
6214.120954,-2664.741391,-8364.327145,919.314598
6214.121276,-2590.720797,-8808.450710,229.828649
6214.121597,-2886.803174,-9030.512492,612.876398
6214.121919,-2664.741391,-9178.553681,919.314598
6214.122241,-2368.659014,-9326.594869,689.485948
6214.122563,-2368.659014,-9770.718434,689.485948
6214.122884,-1850.514855,-9844.739029,306.438199
6214.123206,-2590.720797,-9548.656652,229.828649
6214.123528,-2516.700203,-9326.594869,1072.533697
6214.123849,-2738.761985,-9622.677246,766.095498
6214.124171,-2960.823768,-9400.615463,612.876398
6214.124493,-3108.864956,-9548.656652,766.095498
6214.124815,-2960.823768,-9178.553681,842.705048
6214.125136,-2442.679609,-9548.656652,842.705048
6214.125458,-3108.864956,-8956.491898,1302.362347
6214.125780,-3627.009116,-8216.285956,1685.410096
6214.126101,-3034.844362,-9104.533087,1455.581446
6214.126423,-3034.844362,-8956.491898,766.095498
6214.126745,-2960.823768,-8882.471304,919.314598
6214.127067,-3256.906145,-9030.512492,1149.143247
6214.127388,-3330.926739,-8660.409521,1532.190996
6214.127710,-3256.906145,-9030.512492,1455.581446
6214.128032,-3034.844362,-10066.800811,689.485948
6214.128353,-3182.885551,-9252.574275,995.924147
6214.128675,-3108.864956,-9400.615463,1455.581446
6214.128997,-3256.906145,-9104.533087,1302.362347
6214.129319,-3330.926739,-8956.491898,1378.971896
6214.129640,-3478.967927,-8364.327145,1532.190996
6214.129962,-3478.967927,-8882.471304,1685.410096
6214.130284,-2960.823768,-8512.368333,1915.238745
6214.130605,-3478.967927,-8364.327145,1532.190996
6214.130927,-3775.050304,-8808.450710,1608.800546
6214.131249,-3627.009116,-8660.409521,1532.190996
6214.131571,-3627.009116,-8438.347739,1378.971896
6214.131892,-3404.947333,-8882.471304,1532.190996
6214.132214,-3775.050304,-8512.368333,1915.238745
6214.132536,-2886.803174,-8734.430116,1532.190996
6214.132857,-2294.638420,-9178.553681,1685.410096
6214.133179,-2368.659014,-8956.491898,1685.410096
6214.133501,-3182.885551,-8586.388927,1838.629195
6214.133823,-3404.947333,-8512.368333,2221.676944
6214.134144,-3552.988522,-8364.327145,1991.848295
6214.134466,-3404.947333,-8216.285956,1762.019645
6214.134788,-3923.091493,-7994.224174,1608.800546
6214.135109,-4293.194464,-7550.100608,1455.581446
6214.135431,-4811.338623,-7402.059420,1302.362347
6214.135753,-4811.338623,-7994.224174,842.705048
6214.136075,-4737.318029,-8068.244768,766.095498
6214.136396,-4515.256246,-8660.409521,459.657299
6214.136718,-4293.194464,-8216.285956,536.266849
6214.137040,-3997.112087,-9252.574275,766.095498
6214.137361,-4071.132681,-8808.450710,1455.581446
6214.137683,-3627.009116,-8734.430116,1838.629195
6214.138005,-3108.864956,-9104.533087,459.657299
6214.138327,-3182.885551,-9104.533087,689.485948
6214.138648,-3182.885551,-9326.594869,459.657299
6214.138970,-3108.864956,-8956.491898,536.266849
6214.139292,-3849.070898,-8808.450710,536.266849
6214.139613,-3849.070898,-8808.450710,1302.362347
6214.139935,-3701.029710,-8956.491898,229.828649
6214.140257,-3627.009116,-9178.553681,229.828649
6214.140579,-3849.070898,-8882.471304,76.609550
6214.140900,-3701.029710,-8808.450710,-153.219100
6214.141222,-3701.029710,-9252.574275,-459.657299
6214.141544,-3552.988522,-8586.388927,306.438199
6214.141865,-3330.926739,-9030.512492,0.000000
6214.142187,-3330.926739,-9326.594869,-76.609550
6214.142509,-3108.864956,-9474.636058,153.219100
6214.142831,-2960.823768,-9622.677246,0.000000
6214.143152,-2886.803174,-9844.739029,153.219100
6214.143474,-2516.700203,-9844.739029,0.000000
6214.143796,-2368.659014,-9696.697840,153.219100
6214.144117,-2220.617826,-9548.656652,76.609550
6214.144439,-2220.617826,-9474.636058,459.657299
6214.144761,-2294.638420,-9474.636058,306.438199
6214.145083,-2960.823768,-9326.594869,306.438199
6214.145404,-3256.906145,-9252.574275,306.438199
6214.145726,-3478.967927,-9030.512492,229.828649
6214.146048,-3701.029710,-8956.491898,0.000000
6214.146369,-3701.029710,-8734.430116,0.000000
6214.146691,-4071.132681,-8808.450710,-919.314598
6214.147013,-4515.256246,-8364.327145,76.609550
6214.147335,-4441.235652,-8364.327145,459.657299
6214.147656,-3923.091493,-8956.491898,0.000000
6214.147978,-3775.050304,-8956.491898,229.828649
6214.148300,-3478.967927,-9326.594869,919.314598
6214.148622,-3330.926739,-8660.409521,1608.800546
6214.148943,-3182.885551,-8438.347739,1685.410096
6214.149265,-2886.803174,-8660.409521,995.924147
6214.149587,-2886.803174,-8882.471304,1685.410096
6214.149908,-2664.741391,-9104.533087,1225.752797
6214.150230,-2886.803174,-9030.512492,1455.581446
6214.150552,-3034.844362,-8808.450710,1455.581446
6214.150874,-3404.947333,-8438.347739,2068.457845
6214.151195,-3404.947333,-9178.553681,1685.410096
6214.151517,-3256.906145,-8216.285956,995.924147
6214.151839,-3552.988522,-8290.306550,1072.533697
6214.152160,-4145.153275,-8512.368333,1455.581446
6214.152482,-4071.132681,-7994.224174,1532.190996
6214.152804,-4145.153275,-8438.347739,1149.143247
6214.153126,-4145.153275,-8364.327145,1915.238745
6214.153447,-4071.132681,-8512.368333,1302.362347
6214.153769,-4145.153275,-7920.203579,1455.581446
6214.154091,-3627.009116,-8586.388927,1302.362347
6214.154412,-4145.153275,-8808.450710,1378.971896
6214.154734,-3849.070898,-8734.430116,1838.629195
6214.155056,-3256.906145,-8660.409521,1532.190996
6214.155378,-2516.700203,-8364.327145,919.314598
6214.155699,-3330.926739,-8956.491898,1762.019645
6214.156021,-3034.844362,-8660.409521,1685.410096
6214.156343,-3182.885551,-8956.491898,2068.457845
6214.156664,-2738.761985,-9400.615463,1838.629195
6214.156986,-3108.864956,-8586.388927,1302.362347
6214.157308,-3182.885551,-9252.574275,1149.143247
6214.157630,-3627.009116,-8438.347739,1302.362347
6214.157951,-3627.009116,-8438.347739,1532.190996
6214.158273,-3701.029710,-8364.327145,1302.362347
6214.158595,-3552.988522,-9030.512492,1455.581446
6214.158916,-3478.967927,-9178.553681,1225.752797
6214.159238,-3330.926739,-9326.594869,1302.362347
6214.159560,-3256.906145,-8882.471304,1149.143247
6214.159882,-2960.823768,-9030.512492,1225.752797
6214.160203,-3182.885551,-8364.327145,459.657299
6214.160525,-3034.844362,-8882.471304,919.314598
6214.160847,-3330.926739,-8438.347739,842.705048
6214.161168,-3034.844362,-8956.491898,383.047749
6214.161490,-3404.947333,-8808.450710,306.438199
6214.161812,-3701.029710,-8734.430116,306.438199
6214.162134,-3997.112087,-9252.574275,306.438199
6214.162455,-3923.091493,-9400.615463,0.000000
6214.162777,-3108.864956,-9104.533087,-306.438199
6214.163099,-3775.050304,-9178.553681,-459.657299
6214.163420,-3330.926739,-9622.677246,229.828649
6214.163742,-3701.029710,-9474.636058,459.657299
6214.164064,-3627.009116,-10066.800811,536.266849
6214.164386,-3182.885551,-9770.718434,0.000000
6214.164707,-3256.906145,-9696.697840,306.438199
6214.165029,-3849.070898,-8586.388927,919.314598
6214.165351,-3849.070898,-8512.368333,612.876398
6214.165672,-3701.029710,-8808.450710,-306.438199
6214.165994,-4219.173869,-7846.182985,0.000000
6214.166316,-4737.318029,-8586.388927,-459.657299
6214.166638,-4885.359217,-8364.327145,-612.876398
6214.166959,-4885.359217,-9030.512492,-229.828649
6214.167281,-4441.235652,-9030.512492,-766.095498
6214.167603,-3701.029710,-8956.491898,76.609550
6214.167924,-3256.906145,-9104.533087,76.609550
6214.168246,-3034.844362,-8956.491898,612.876398
6214.168568,-2960.823768,-9622.677246,919.314598
6214.168890,-2886.803174,-9326.594869,1149.143247
6214.169211,-2812.782580,-8956.491898,1378.971896
6214.169533,-2960.823768,-9548.656652,919.314598
6214.169855,-3182.885551,-8586.388927,383.047749
6214.170176,-3478.967927,-8956.491898,76.609550
6214.170498,-3552.988522,-8068.244768,76.609550
6214.170820,-3404.947333,-8438.347739,153.219100
6214.171142,-4219.173869,-8808.450710,459.657299
6214.171463,-4293.194464,-8734.430116,306.438199
6214.171785,-3256.906145,-9030.512492,76.609550
6214.172107,-2960.823768,-8882.471304,536.266849
6214.172428,-2960.823768,-9770.718434,1302.362347
6214.172750,-2812.782580,-9474.636058,2068.457845
6214.173072,-3478.967927,-9548.656652,1378.971896
6214.173394,-2960.823768,-9474.636058,919.314598
6214.173715,-2664.741391,-8660.409521,1149.143247
6214.174037,-2812.782580,-9326.594869,1455.581446
6214.174359,-3034.844362,-8364.327145,1532.190996
6214.174680,-3108.864956,-8142.265362,1915.238745
6214.175002,-3256.906145,-8216.285956,919.314598
6214.175324,-3256.906145,-7920.203579,1685.410096
6214.175646,-3404.947333,-8586.388927,1608.800546
6214.175967,-3330.926739,-8438.347739,1302.362347
6214.176289,-3108.864956,-9104.533087,995.924147
6214.176611,-3404.947333,-8660.409521,995.924147
6214.176932,-3478.967927,-8734.430116,1302.362347
6214.177254,-3034.844362,-8586.388927,995.924147
6214.177576,-2590.720797,-9622.677246,1455.581446
6214.177898,-2886.803174,-9474.636058,1532.190996
6214.178219,-2664.741391,-9104.533087,1762.019645
6214.178541,-2886.803174,-9178.553681,1838.629195
6214.178863,-3034.844362,-8586.388927,1685.410096
6214.179184,-3034.844362,-8734.430116,1915.238745
6214.179506,-3330.926739,-8438.347739,1762.019645
6214.179828,-3330.926739,-7994.224174,919.314598
6214.180150,-3404.947333,-8734.430116,995.924147
6214.180471,-3923.091493,-8660.409521,842.705048
6214.180793,-3923.091493,-9252.574275,842.705048
6214.181115,-3701.029710,-8956.491898,766.095498
6214.181436,-3775.050304,-8956.491898,1302.362347
6214.181758,-4071.132681,-8956.491898,919.314598
6214.182080,-3997.112087,-8808.450710,919.314598
6214.182402,-3256.906145,-9770.718434,1225.752797
6214.182723,-2960.823768,-8660.409521,459.657299
6214.183045,-3108.864956,-9030.512492,995.924147
6214.183367,-2886.803174,-9104.533087,1608.800546
6214.183688,-2960.823768,-8956.491898,1532.190996
6214.184010,-2960.823768,-9400.615463,1608.800546
6214.184332,-3034.844362,-8808.450710,2145.067394
6214.184654,-3034.844362,-8734.430116,2451.505594
6214.184975,-4293.194464,-8364.327145,1915.238745
6214.185297,-3404.947333,-8882.471304,1225.752797
6214.185619,-3849.070898,-8956.491898,536.266849
6214.185940,-4219.173869,-8808.450710,229.828649
6214.186262,-4219.173869,-9030.512492,459.657299
6214.186584,-4367.215058,-8586.388927,612.876398
6214.186906,-4219.173869,-8956.491898,689.485948
6214.187227,-4071.132681,-8956.491898,536.266849
6214.187549,-3552.988522,-8882.471304,689.485948
6214.187871,-3256.906145,-9474.636058,229.828649
6214.188193,-3182.885551,-9326.594869,689.485948
6214.188514,-3034.844362,-9474.636058,842.705048
6214.188836,-2812.782580,-8808.450710,1225.752797
6214.189158,-2960.823768,-9030.512492,1225.752797
6214.189479,-2886.803174,-8882.471304,459.657299
6214.189801,-3330.926739,-8216.285956,383.047749
6214.190123,-3552.988522,-8586.388927,306.438199
6214.190445,-3627.009116,-8290.306550,383.047749
6214.190766,-3627.009116,-8734.430116,229.828649
6214.191088,-3849.070898,-8142.265362,229.828649
6214.191410,-4515.256246,-8438.347739,689.485948
6214.191731,-3478.967927,-8438.347739,919.314598
6214.192053,-3330.926739,-8660.409521,229.828649
6214.192375,-3997.112087,-9104.533087,153.219100
6214.192697,-3552.988522,-8882.471304,383.047749
6214.193018,-3108.864956,-8956.491898,383.047749
6214.193340,-2960.823768,-8956.491898,383.047749
6214.193662,-3256.906145,-8660.409521,459.657299
6214.193983,-3034.844362,-8586.388927,1072.533697
6214.194305,-3034.844362,-9104.533087,995.924147
6214.194627,-3404.947333,-8956.491898,-153.219100
6214.194949,-3330.926739,-8734.430116,153.219100
6214.195270,-3552.988522,-9030.512492,0.000000
6214.195592,-3627.009116,-8882.471304,0.000000
6214.195914,-3478.967927,-9030.512492,0.000000
6214.196236,-3108.864956,-9104.533087,0.000000
6214.196557,-3034.844362,-9178.553681,76.609550
6214.196879,-3256.906145,-9622.677246,-229.828649
6214.197201,-3034.844362,-9326.594869,612.876398
6214.197522,-2960.823768,-9770.718434,459.657299
6214.197844,-3256.906145,-9326.594869,766.095498
6214.198166,-3404.947333,-9622.677246,919.314598
