#time,accel_x,accel_y,accel_z
730.504386,-3404.947333,-9104.533087,842.705048
730.504698,-3478.967927,-9030.512492,1149.143247
730.505011,-3256.906145,-8586.388927,1225.752797
730.505324,-3627.009116,-8734.430116,919.314598
730.505636,-3478.967927,-8882.471304,842.705048
730.505949,-3552.988522,-8956.491898,995.924147
730.506262,-3701.029710,-8956.491898,1072.533697
730.506574,-3404.947333,-8586.388927,766.095498
730.506887,-3478.967927,-8808.450710,1072.533697
730.507200,-3552.988522,-8734.430116,459.657299
730.507512,-3256.906145,-9030.512492,919.314598
730.507825,-3701.029710,-8734.430116,766.095498
730.508138,-3701.029710,-8882.471304,766.095498
730.508450,-3552.988522,-8956.491898,995.924147
730.508763,-3701.029710,-8956.491898,919.314598
730.509076,-3701.029710,-8882.471304,1149.143247
730.509388,-3627.009116,-8586.388927,842.705048
730.509701,-3849.070898,-8512.368333,919.314598
730.510014,-3404.947333,-8660.409521,766.095498
730.510326,-3627.009116,-8808.450710,919.314598
730.510639,-3627.009116,-8660.409521,919.314598
730.510952,-3701.029710,-8882.471304,689.485948
730.511264,-3627.009116,-8882.471304,919.314598
730.511577,-3775.050304,-9104.533087,842.705048
730.511890,-3478.967927,-9104.533087,1072.533697
730.512202,-3627.009116,-8734.430116,919.314598
730.512515,-3627.009116,-8734.430116,919.314598
730.512828,-3701.029710,-8956.491898,842.705048
730.513140,-3627.009116,-8882.471304,919.314598
730.513453,-3701.029710,-8882.471304,919.314598
730.513765,-3627.009116,-8808.450710,1072.533697
730.514078,-3627.009116,-8216.285956,689.485948
730.514391,-3552.988522,-8364.327145,383.047749
730.514703,-3627.009116,-8660.409521,1302.362347
730.515016,-3627.009116,-8808.450710,689.485948
730.515329,-3627.009116,-8956.491898,766.095498
730.515641,-3701.029710,-8882.471304,842.705048
730.515954,-3701.029710,-8808.450710,919.314598
730.516267,-3330.926739,-9474.636058,1072.533697
730.516579,-3330.926739,-8882.471304,689.485948
730.516892,-3701.029710,-8882.471304,1302.362347
730.517205,-3256.906145,-9030.512492,1532.190996
730.517517,-3775.050304,-8660.409521,919.314598
730.517830,-3552.988522,-8808.450710,1072.533697
730.518143,-3849.070898,-8586.388927,689.485948
730.518455,-3627.009116,-8956.491898,919.314598
730.518768,-3775.050304,-8142.265362,766.095498
730.519081,-3849.070898,-8512.368333,612.876398
730.519393,-2960.823768,-8660.409521,1149.143247
730.519706,-3775.050304,-8586.388927,1225.752797
730.520019,-3627.009116,-8956.491898,995.924147
730.520331,-3701.029710,-8808.450710,1072.533697
730.520644,-3701.029710,-9030.512492,919.314598
730.520957,-3552.988522,-8734.430116,919.314598
730.521269,-3182.885551,-8956.491898,689.485948
730.521582,-3330.926739,-8808.450710,995.924147
730.521895,-3330.926739,-8882.471304,1685.410096
730.522207,-3552.988522,-8734.430116,689.485948
730.522520,-3552.988522,-8956.491898,842.705048
730.522833,-3701.029710,-8808.450710,919.314598
730.523145,-3775.050304,-9030.512492,995.924147
730.523458,-3849.070898,-8734.430116,689.485948
730.523771,-3478.967927,-8956.491898,919.314598
730.524083,-3923.091493,-8734.430116,919.314598
730.524396,-3627.009116,-8512.368333,766.095498
730.524709,-3701.029710,-8808.450710,766.095498
730.525021,-3701.029710,-8808.450710,1072.533697
730.525334,-3701.029710,-8660.409521,995.924147
730.525647,-3627.009116,-8882.471304,766.095498
730.525959,-3182.885551,-8512.368333,1378.971896
730.526272,-3701.029710,-8808.450710,1225.752797
730.526585,-3849.070898,-8808.450710,1149.143247
730.526897,-3627.009116,-8734.430116,1149.143247
730.527210,-3775.050304,-8808.450710,689.485948
730.527523,-3552.988522,-8956.491898,766.095498
730.527835,-3552.988522,-8882.471304,919.314598
730.528148,-3701.029710,-8882.471304,919.314598
730.528461,-3404.947333,-8882.471304,1072.533697
730.528773,-3330.926739,-8808.450710,1149.143247
730.529086,-3478.967927,-8142.265362,766.095498
730.529399,-3256.906145,-8586.388927,536.266849
730.529711,-3182.885551,-8882.471304,766.095498
730.530024,-3256.906145,-8586.388927,689.485948
730.530337,-3478.967927,-8956.491898,383.047749
730.530649,-3701.029710,-9178.553681,536.266849
730.530962,-3552.988522,-9252.574275,459.657299
730.531275,-3849.070898,-8956.491898,1608.800546
730.531587,-4071.132681,-9030.512492,1455.581446
730.531900,-3775.050304,-9104.533087,1455.581446
730.532212,-3627.009116,-8956.491898,919.314598
730.532525,-3775.050304,-8438.347739,459.657299
730.532838,-3849.070898,-8882.471304,76.609550
730.533150,-3256.906145,-8956.491898,459.657299
730.533463,-2960.823768,-8660.409521,842.705048
730.533776,-3478.967927,-8290.306550,842.705048
730.534088,-3330.926739,-8364.327145,1302.362347
730.534401,-3404.947333,-8586.388927,1302.362347
730.534714,-3552.988522,-8956.491898,1149.143247
730.535026,-3404.947333,-9178.553681,919.314598
730.535339,-3330.926739,-9252.574275,612.876398
730.535652,-3108.864956,-8882.471304,306.438199
730.535964,-3330.926739,-8142.265362,766.095498
730.536277,-3478.967927,-8956.491898,995.924147
730.536590,-3404.947333,-9400.615463,1225.752797
730.536902,-3627.009116,-8808.450710,919.314598
730.537215,-3923.091493,-9030.512492,766.095498
730.537528,-3552.988522,-9400.615463,536.266849
730.537840,-3701.029710,-8882.471304,306.438199
730.538153,-3552.988522,-8068.244768,0.000000
730.538466,-3108.864956,-9104.533087,766.095498
730.538778,-3108.864956,-8882.471304,459.657299
730.539091,-3404.947333,-8438.347739,-306.438199
730.539404,-3552.988522,-8438.347739,536.266849
730.539716,-3627.009116,-9474.636058,1072.533697
730.540029,-3330.926739,-9474.636058,919.314598
730.540342,-3330.926739,-8956.491898,995.924147
730.540654,-3923.091493,-8734.430116,1149.143247
730.540967,-3701.029710,-9696.697840,1149.143247
730.541280,-3330.926739,-8956.491898,306.438199
730.541592,-3923.091493,-8438.347739,153.219100
730.541905,-4071.132681,-8512.368333,76.609550
730.542218,-3627.009116,-8438.347739,0.000000
730.542530,-1184.329507,-9474.636058,-612.876398
730.542843,-1036.288319,-9770.718434,-306.438199
730.543156,-2072.576638,-8586.388927,612.876398
730.543468,-1702.473667,-7846.182985,1149.143247
730.543781,-2294.638420,-9400.615463,612.876398
730.544094,-1554.432478,-10362.883188,459.657299
730.544406,-296.082377,-9622.677246,-995.924147
730.544719,-888.247130,-9030.512492,0.000000
730.545032,-1850.514855,-9696.697840,1455.581446
730.545344,-2590.720797,-10288.862594,2681.334243
730.545657,-2812.782580,-9696.697840,1072.533697
730.545970,-3182.885551,-9696.697840,766.095498
730.546282,-3627.009116,-9844.739029,-153.219100
730.546595,-3404.947333,-8586.388927,-766.095498
730.546908,-3330.926739,-7772.162391,-1149.143247
730.547220,-4959.379811,-7994.224174,0.000000
730.547533,-5181.441594,-8290.306550,0.000000
730.547846,-4515.256246,-7920.203579,-1149.143247
730.548158,-2368.659014,-8068.244768,-2221.676944
730.548471,-3256.906145,-8364.327145,-1149.143247
730.548784,-3552.988522,-7994.224174,689.485948
730.549096,-3330.926739,-9030.512492,1072.533697
730.549409,-3108.864956,-9178.553681,536.266849
730.549722,-3627.009116,-9770.718434,459.657299
730.550034,-3330.926739,-9252.574275,-383.047749
730.550347,-2590.720797,-9696.697840,-383.047749
730.550659,-3997.112087,-9844.739029,612.876398
730.550972,-4663.297435,-9400.615463,689.485948
730.551285,-3701.029710,-9252.574275,919.314598
730.551597,-4589.276840,-9474.636058,306.438199
730.551910,-4515.256246,-8956.491898,76.609550
730.552223,-3775.050304,-8660.409521,-612.876398
730.552535,-4071.132681,-8808.450710,-536.266849
730.552848,-4589.276840,-8068.244768,229.828649
730.553161,-4589.276840,-7920.203579,919.314598
730.553473,-4589.276840,-8586.388927,1378.971896
730.553786,-3849.070898,-8734.430116,153.219100
730.554099,-3849.070898,-8660.409521,0.000000
730.554411,-3552.988522,-8512.368333,229.828649
730.554724,-3404.947333,-9104.533087,919.314598
730.555037,-3849.070898,-9178.553681,1532.190996
730.555349,-3404.947333,-9252.574275,2145.067394
730.555662,-3182.885551,-9326.594869,1072.533697
730.555975,-3182.885551,-8882.471304,919.314598
730.556287,-3478.967927,-8364.327145,689.485948
730.556600,-3256.906145,-9030.512492,1302.362347
730.556913,-3478.967927,-9104.533087,1455.581446
730.557225,-3330.926739,-8808.450710,1455.581446
730.557538,-3552.988522,-8808.450710,1455.581446
730.557851,-3552.988522,-8660.409521,1762.019645
730.558163,-3552.988522,-8290.306550,1455.581446
730.558476,-3330.926739,-8438.347739,995.924147
730.558789,-3478.967927,-8734.430116,1915.238745
730.559101,-3997.112087,-8586.388927,1532.190996
730.559414,-3627.009116,-8438.347739,1302.362347
730.559727,-3182.885551,-8512.368333,1149.143247
730.560039,-2960.823768,-8512.368333,1378.971896
730.560352,-3182.885551,-8290.306550,1532.190996
730.560665,-2516.700203,-8512.368333,1915.238745
730.560977,-3330.926739,-8586.388927,2451.505594
730.561290,-2738.761985,-9030.512492,2221.676944
730.561603,-2664.741391,-8734.430116,1378.971896
730.561915,-2738.761985,-8438.347739,919.314598
730.562228,-3034.844362,-8734.430116,1225.752797
730.562541,-3108.864956,-8660.409521,1991.848295
730.562853,-3034.844362,-8512.368333,1455.581446
730.563166,-3478.967927,-8364.327145,1302.362347
730.563479,-3478.967927,-8364.327145,766.095498
730.563791,-3034.844362,-8882.471304,919.314598
730.564104,-3108.864956,-9030.512492,1302.362347
730.564417,-3627.009116,-8956.491898,1838.629195
730.564729,-3627.009116,-8956.491898,1915.238745
730.565042,-3108.864956,-8586.388927,1532.190996
730.565355,-3478.967927,-7994.224174,1149.143247
730.565667,-3627.009116,-8512.368333,536.266849
730.565980,-3627.009116,-9030.512492,1072.533697
730.566293,-3923.091493,-8734.430116,383.047749
730.566605,-4145.153275,-8586.388927,995.924147
730.566918,-4367.215058,-8660.409521,1072.533697
730.567231,-4145.153275,-8438.347739,842.705048
730.567543,-4219.173869,-8438.347739,689.485948
730.567856,-4293.194464,-8586.388927,536.266849
730.568169,-4219.173869,-8438.347739,1149.143247
730.568481,-4441.235652,-8882.471304,1149.143247
730.568794,-4515.256246,-8734.430116,766.095498
730.569107,-4589.276840,-8438.347739,689.485948
730.569419,-4589.276840,-8808.450710,766.095498
730.569732,-4441.235652,-8808.450710,919.314598
730.570045,-4219.173869,-8586.388927,689.485948
730.570357,-4663.297435,-8586.388927,612.876398
730.570670,-4515.256246,-8586.388927,536.266849
730.570983,-4293.194464,-8364.327145,0.000000
730.571295,-4145.153275,-8512.368333,383.047749
730.571608,-4367.215058,-8660.409521,842.705048
730.571921,-4145.153275,-8808.450710,612.876398
730.572233,-4367.215058,-8808.450710,612.876398
730.572546,-4515.256246,-8808.450710,842.705048
730.572859,-4219.173869,-9030.512492,1225.752797
730.573171,-3923.091493,-8882.471304,1149.143247
730.573484,-4367.215058,-8808.450710,1302.362347
730.573797,-4515.256246,-9104.533087,1455.581446
730.574109,-4441.235652,-8956.491898,995.924147
730.574422,-3997.112087,-8956.491898,842.705048
730.574735,-3997.112087,-8660.409521,612.876398
730.575047,-3997.112087,-8586.388927,1685.410096
730.575360,-3478.967927,-8660.409521,1455.581446
730.575673,-3256.906145,-8586.388927,919.314598
730.575985,-3478.967927,-8586.388927,1378.971896
730.576298,-2812.782580,-8734.430116,995.924147
730.576611,-2960.823768,-8734.430116,919.314598
730.576923,-2960.823768,-8882.471304,1225.752797
730.577236,-2812.782580,-9104.533087,995.924147
730.577549,-2812.782580,-8734.430116,1685.410096
730.577861,-3182.885551,-8438.347739,1378.971896
730.578174,-2738.761985,-9030.512492,1532.190996
730.578486,-3478.967927,-9252.574275,1455.581446
730.578799,-3701.029710,-9030.512492,1608.800546
730.579112,-3923.091493,-9252.574275,1532.190996
730.579424,-3923.091493,-8660.409521,1532.190996
730.579737,-4293.194464,-8660.409521,1915.238745
730.580050,-3997.112087,-8290.306550,1685.410096
730.580362,-3849.070898,-8290.306550,1532.190996
730.580675,-3627.009116,-8068.244768,1378.971896
730.580988,-4071.132681,-8068.244768,1149.143247
730.581300,-3775.050304,-7994.224174,1455.581446
730.581613,-3552.988522,-8216.285956,1378.971896
730.581926,-3478.967927,-8364.327145,1455.581446
730.582238,-3627.009116,-8586.388927,1608.800546
730.582551,-3256.906145,-8808.450710,1762.019645
730.582864,-3404.947333,-8438.347739,1762.019645
730.583176,-3849.070898,-8956.491898,1762.019645
730.583489,-3849.070898,-9252.574275,1532.190996
730.583802,-4071.132681,-9104.533087,1532.190996
730.584114,-4293.194464,-9104.533087,1838.629195
730.584427,-4145.153275,-9252.574275,1455.581446
730.584740,-3997.112087,-8808.450710,1532.190996
730.585052,-4441.235652,-7846.182985,1302.362347
730.585365,-4663.297435,-8364.327145,995.924147
730.585678,-4441.235652,-8438.347739,842.705048
730.585990,-4367.215058,-8216.285956,536.266849
730.586303,-4589.276840,-8068.244768,766.095498
730.586616,-3923.091493,-8438.347739,1072.533697
730.586928,-3627.009116,-8068.244768,536.266849
730.587241,-3775.050304,-8290.306550,1149.143247
730.587554,-4145.153275,-8660.409521,1149.143247
730.587866,-3478.967927,-8586.388927,1149.143247
730.588179,-3849.070898,-9104.533087,1072.533697
730.588492,-4589.276840,-8808.450710,1532.190996
730.588804,-4515.256246,-9178.553681,1915.238745
730.589117,-3923.091493,-9252.574275,1608.800546
730.589430,-4367.215058,-8586.388927,1072.533697
730.589742,-4219.173869,-8364.327145,306.438199
730.590055,-4515.256246,-8956.491898,536.266849
730.590368,-3997.112087,-9030.512492,842.705048
730.590680,-3997.112087,-8660.409521,766.095498
730.590993,-3997.112087,-8438.347739,919.314598
730.591306,-3330.926739,-8438.347739,536.266849
730.591618,-3627.009116,-8586.388927,612.876398
730.591931,-4071.132681,-8586.388927,766.095498
730.592244,-3997.112087,-8734.430116,1225.752797
730.592556,-3256.906145,-9178.553681,919.314598
730.592869,-3256.906145,-9178.553681,1685.410096
730.593182,-3256.906145,-9030.512492,1532.190996
730.593494,-3256.906145,-9104.533087,1455.581446
730.593807,-3552.988522,-9178.553681,1149.143247
730.594120,-3701.029710,-9030.512492,766.095498
730.594432,-3627.009116,-8734.430116,0.000000
730.594745,-3256.906145,-8956.491898,153.219100
730.595058,-3775.050304,-8734.430116,766.095498
730.595370,-3775.050304,-8734.430116,1378.971896
730.595683,-3627.009116,-9030.512492,1532.190996
730.595996,-3849.070898,-9178.553681,1455.581446
730.596308,-3923.091493,-8882.471304,1072.533697
730.596621,-3775.050304,-8882.471304,919.314598
730.596934,-3552.988522,-9178.553681,995.924147
730.597246,-3108.864956,-8660.409521,536.266849
730.597559,-3701.029710,-8438.347739,1149.143247
730.597872,-3701.029710,-8660.409521,1685.410096
730.598184,-3478.967927,-8882.471304,1149.143247
730.598497,-3256.906145,-8956.491898,1072.533697
730.598810,-3775.050304,-8586.388927,766.095498
730.599122,-3552.988522,-8290.306550,995.924147
730.599435,-3404.947333,-8364.327145,919.314598
730.599748,-3552.988522,-8734.430116,612.876398
730.600060,-3775.050304,-8512.368333,1149.143247
730.600373,-4367.215058,-8956.491898,1455.581446
730.600686,-4145.153275,-8956.491898,1455.581446
730.600998,-3923.091493,-9030.512492,1455.581446
730.601311,-4071.132681,-8808.450710,1532.190996
730.601624,-4441.235652,-8364.327145,1149.143247
730.601936,-3627.009116,-8364.327145,459.657299
730.602249,-3775.050304,-8438.347739,459.657299
730.602562,-3849.070898,-7772.162391,0.000000
730.602874,-3552.988522,-8290.306550,383.047749
730.603187,-3627.009116,-8734.430116,766.095498
730.603500,-3478.967927,-9030.512492,995.924147
730.603812,-3182.885551,-8734.430116,1225.752797
730.604125,-3330.926739,-9030.512492,2068.457845
730.604438,-3552.988522,-8956.491898,919.314598
730.604750,-3627.009116,-9474.636058,1455.581446
730.605063,-3701.029710,-9030.512492,1149.143247
730.605376,-3849.070898,-9178.553681,1225.752797
730.605688,-4145.153275,-9030.512492,1072.533697
730.606001,-3923.091493,-8734.430116,766.095498
730.606314,-3997.112087,-8808.450710,995.924147
730.606626,-3775.050304,-8660.409521,306.438199
730.606939,-3478.967927,-8808.450710,919.314598
730.607252,-3552.988522,-8660.409521,1149.143247
730.607564,-3182.885551,-8882.471304,1225.752797
730.607877,-3108.864956,-8956.491898,995.924147
730.608190,-3256.906145,-8586.388927,1149.143247
730.608502,-3552.988522,-8808.450710,1608.800546
730.608815,-3182.885551,-9400.615463,1685.410096
730.609128,-3256.906145,-9326.594869,1225.752797
730.609440,-3404.947333,-9030.512492,1991.848295
730.609753,-3923.091493,-9326.594869,2221.676944
730.610066,-3997.112087,-9400.615463,1608.800546
730.610378,-3997.112087,-8808.450710,1225.752797
730.610691,-4219.173869,-8364.327145,1149.143247
730.611004,-4515.256246,-8734.430116,1455.581446
730.611316,-3923.091493,-8808.450710,766.095498
730.611629,-3849.070898,-8068.244768,689.485948
730.611942,-3997.112087,-7920.203579,919.314598
730.612254,-4441.235652,-8438.347739,1225.752797
730.612567,-3701.029710,-8808.450710,1685.410096
730.612880,-3627.009116,-8734.430116,1838.629195
730.613192,-3627.009116,-8734.430116,2221.676944
730.613505,-3849.070898,-8808.450710,1915.238745
730.613818,-3552.988522,-8586.388927,1915.238745
730.614130,-3478.967927,-8364.327145,1838.629195
730.614443,-4071.132681,-8586.388927,2068.457845
730.614756,-4959.379811,-7920.203579,2298.286494
730.615068,-5181.441594,-8364.327145,1991.848295
730.615381,-4737.318029,-8512.368333,1608.800546
730.615694,-5107.421000,-8290.306550,1225.752797
730.616006,-5181.441594,-7994.224174,1302.362347
730.616319,-4885.359217,-7550.100608,1378.971896
730.616632,-5033.400406,-7698.141797,1149.143247
730.616944,-5403.503377,-7698.141797,1762.019645
730.617257,-5107.421000,-7476.080014,1302.362347
730.617570,-4663.297435,-7920.203579,995.924147
730.617882,-4515.256246,-8216.285956,1225.752797
730.618195,-4219.173869,-8068.244768,1608.800546
730.618508,-3997.112087,-8068.244768,2451.505594
730.618820,-4737.318029,-8438.347739,2451.505594
730.619133,-3701.029710,-8586.388927,2298.286494
730.619446,-3256.906145,-9104.533087,1991.848295
730.619758,-3701.029710,-8882.471304,1225.752797
730.620071,-4071.132681,-8956.491898,1378.971896
730.620384,-3849.070898,-8364.327145,1378.971896
730.620696,-3182.885551,-8808.450710,536.266849
730.621009,-3108.864956,-8882.471304,919.314598
730.621322,-3256.906145,-8660.409521,995.924147
730.621634,-3256.906145,-8586.388927,919.314598
730.621947,-2960.823768,-8660.409521,919.314598
730.622260,-3330.926739,-8956.491898,1532.190996
730.622572,-3404.947333,-8734.430116,1455.581446
730.622885,-2812.782580,-9030.512492,1225.752797
730.623197,-2738.761985,-9178.553681,995.924147
730.623510,-3256.906145,-9104.533087,842.705048
730.623823,-3256.906145,-8956.491898,1149.143247
730.624135,-3478.967927,-9104.533087,459.657299
730.624448,-3034.844362,-9474.636058,1072.533697
730.624761,-3256.906145,-9252.574275,842.705048
730.625073,-3404.947333,-9178.553681,383.047749
730.625386,-3552.988522,-8956.491898,153.219100
730.625699,-3552.988522,-9030.512492,689.485948
730.626011,-3849.070898,-8364.327145,689.485948
730.626324,-3627.009116,-8808.450710,306.438199
730.626637,-3552.988522,-9030.512492,919.314598
730.626949,-3478.967927,-8734.430116,995.924147
730.627262,-3552.988522,-9104.533087,689.485948
730.627575,-3849.070898,-8956.491898,919.314598
730.627887,-3997.112087,-8956.491898,1225.752797
730.628200,-3849.070898,-9104.533087,919.314598
730.628513,-3923.091493,-8956.491898,306.438199
730.628825,-3775.050304,-8734.430116,919.314598
730.629138,-3775.050304,-8660.409521,766.095498
730.629451,-3849.070898,-8882.471304,995.924147
730.629763,-4219.173869,-8882.471304,1072.533697
730.630076,-4367.215058,-8438.347739,766.095498
730.630389,-4293.194464,-8512.368333,612.876398
730.630701,-4515.256246,-8216.285956,459.657299
730.631014,-4367.215058,-8734.430116,1762.019645
730.631327,-4219.173869,-8068.244768,1608.800546
730.631639,-4515.256246,-8290.306550,1455.581446
730.631952,-4663.297435,-8586.388927,1302.362347
730.632265,-4589.276840,-8438.347739,995.924147
730.632577,-4589.276840,-8438.347739,842.705048
730.632890,-4663.297435,-8586.388927,995.924147
730.633203,-3923.091493,-8290.306550,1072.533697
730.633515,-4145.153275,-8216.285956,1378.971896
730.633828,-4515.256246,-8364.327145,1149.143247
730.634141,-4145.153275,-8438.347739,1378.971896
730.634453,-3849.070898,-8586.388927,1072.533697
730.634766,-3775.050304,-8586.388927,766.095498
730.635079,-3997.112087,-8364.327145,919.314598
730.635391,-3552.988522,-8586.388927,1225.752797
730.635704,-3701.029710,-8290.306550,1608.800546
730.636017,-3701.029710,-8216.285956,1532.190996
730.636329,-3849.070898,-8660.409521,1378.971896
730.636642,-3775.050304,-8438.347739,1378.971896
730.636955,-3627.009116,-8512.368333,842.705048
730.637267,-3627.009116,-8734.430116,1455.581446
730.637580,-3701.029710,-8586.388927,1608.800546
730.637893,-3701.029710,-8734.430116,1838.629195
730.638205,-3627.009116,-8734.430116,1762.019645
730.638518,-3849.070898,-8586.388927,995.924147
730.638831,-3775.050304,-8586.388927,1455.581446
730.639143,-3478.967927,-8660.409521,1532.190996
730.639456,-3478.967927,-8512.368333,1302.362347
730.639769,-3478.967927,-8586.388927,1149.143247
730.640081,-3404.947333,-8586.388927,1225.752797
730.640394,-3627.009116,-8734.430116,1302.362347
730.640707,-3330.926739,-8882.471304,919.314598
730.641019,-3404.947333,-8882.471304,1915.238745
730.641332,-3256.906145,-9104.533087,1225.752797
730.641645,-3330.926739,-9030.512492,842.705048
730.641957,-3478.967927,-8956.491898,1608.800546
730.642270,-3627.009116,-9104.533087,1685.410096
730.642583,-3256.906145,-9178.553681,1302.362347
730.642895,-3330.926739,-9178.553681,995.924147
730.643208,-3627.009116,-8956.491898,919.314598
730.643521,-3627.009116,-8734.430116,1149.143247
730.643833,-3552.988522,-9326.594869,1685.410096
730.644146,-3849.070898,-9178.553681,1149.143247
730.644459,-4071.132681,-8734.430116,1225.752797
730.644771,-4145.153275,-8660.409521,1378.971896
730.645084,-4145.153275,-8808.450710,1455.581446
730.645397,-4293.194464,-8882.471304,1072.533697
730.645709,-4071.132681,-8290.306550,995.924147
730.646022,-3923.091493,-8512.368333,995.924147
730.646335,-4219.173869,-8660.409521,1225.752797
730.646647,-4737.318029,-8364.327145,995.924147
730.646960,-4811.338623,-8438.347739,1455.581446
730.647273,-4219.173869,-8660.409521,1302.362347
730.647585,-4145.153275,-8586.388927,1072.533697
730.647898,-3849.070898,-8660.409521,919.314598
730.648211,-4071.132681,-8364.327145,1072.533697
730.648523,-3775.050304,-8586.388927,842.705048
730.648836,-3923.091493,-8586.388927,1455.581446
730.649149,-4145.153275,-8586.388927,1149.143247
730.649461,-3404.947333,-8882.471304,919.314598
730.649774,-3256.906145,-8808.450710,689.485948
730.650087,-3330.926739,-8734.430116,1072.533697
730.650399,-3552.988522,-8956.491898,1532.190996
730.650712,-3478.967927,-9030.512492,766.095498
730.651025,-3256.906145,-8734.430116,766.095498
730.651337,-2812.782580,-9030.512492,383.047749
730.651650,-2442.679609,-8660.409521,0.000000
730.651963,-2590.720797,-8956.491898,0.000000
730.652275,-2516.700203,-8808.450710,306.438199
730.652588,-2516.700203,-8956.491898,459.657299
730.652901,-2146.597232,-9252.574275,689.485948
730.653213,-2072.576638,-9400.615463,0.000000
730.653526,-1850.514855,-9178.553681,0.000000
730.653839,-2146.597232,-8734.430116,153.219100
730.654151,-2516.700203,-9252.574275,766.095498
730.654464,-2960.823768,-9474.636058,689.485948
730.654777,-2886.803174,-9548.656652,76.609550
730.655089,-3034.844362,-9770.718434,0.000000
730.655402,-3108.864956,-9548.656652,229.828649
730.655715,-3552.988522,-9030.512492,229.828649
730.656027,-3478.967927,-9104.533087,229.828649
730.656340,-3849.070898,-9104.533087,0.000000
730.656653,-3997.112087,-8956.491898,0.000000
730.656965,-3701.029710,-8660.409521,-689.485948
730.657278,-3627.009116,-8438.347739,-995.924147
730.657591,-3552.988522,-8660.409521,-536.266849
730.657903,-3552.988522,-8068.244768,0.000000
730.658216,-3552.988522,-8734.430116,459.657299
730.658529,-3627.009116,-8660.409521,612.876398
730.658841,-3034.844362,-9326.594869,459.657299
730.659154,-3034.844362,-9400.615463,383.047749
730.659467,-3108.864956,-9400.615463,229.828649
730.659779,-3478.967927,-9400.615463,536.266849
730.660092,-3478.967927,-9252.574275,76.609550
730.660405,-3330.926739,-9474.636058,536.266849
730.660717,-3849.070898,-9474.636058,1225.752797
730.661030,-3627.009116,-9178.553681,536.266849
730.661343,-3997.112087,-9030.512492,229.828649
730.661655,-4071.132681,-8956.491898,229.828649
730.661968,-4293.194464,-8882.471304,536.266849
730.662281,-3997.112087,-8512.368333,383.047749
730.662593,-4071.132681,-8068.244768,76.609550
730.662906,-3775.050304,-7994.224174,76.609550
730.663219,-3478.967927,-8216.285956,76.609550
730.663531,-3478.967927,-8290.306550,612.876398
730.663844,-3775.050304,-8660.409521,1072.533697
730.664157,-3997.112087,-9178.553681,1225.752797
730.664469,-3627.009116,-9030.512492,1072.533697
730.664782,-3552.988522,-9030.512492,1072.533697
730.665095,-3108.864956,-8956.491898,1762.019645
730.665407,-3552.988522,-9474.636058,1378.971896
730.665720,-3404.947333,-9178.553681,689.485948
730.666033,-3849.070898,-8882.471304,919.314598
730.666345,-3775.050304,-8808.450710,842.705048
730.666658,-3256.906145,-8808.450710,842.705048
730.666971,-3108.864956,-8512.368333,995.924147
730.667283,-3330.926739,-8882.471304,1072.533697
730.667596,-3478.967927,-8438.347739,1302.362347
730.667908,-3182.885551,-8216.285956,1685.410096
730.668221,-3552.988522,-8512.368333,1455.581446
730.668534,-3182.885551,-8438.347739,1302.362347
730.668846,-2812.782580,-8660.409521,1072.533697
730.669159,-2590.720797,-8660.409521,919.314598
730.669472,-2812.782580,-9104.533087,995.924147
730.669784,-3182.885551,-8808.450710,2298.286494
730.670097,-2590.720797,-9104.533087,1685.410096
730.670410,-2590.720797,-9474.636058,995.924147
730.670722,-2738.761985,-9474.636058,1455.581446
730.671035,-2664.741391,-8956.491898,995.924147
730.671348,-2664.741391,-9252.574275,919.314598
730.671660,-2738.761985,-9178.553681,995.924147
730.671973,-3034.844362,-8956.491898,842.705048
730.672286,-2590.720797,-8808.450710,1455.581446
730.672598,-2738.761985,-8956.491898,306.438199
730.672911,-3034.844362,-8734.430116,536.266849
730.673224,-2960.823768,-9178.553681,459.657299
730.673536,-3256.906145,-8808.450710,995.924147
730.673849,-3256.906145,-9178.553681,1149.143247
730.674162,-3330.926739,-9030.512492,766.095498
730.674474,-3330.926739,-9030.512492,612.876398
730.674787,-3404.947333,-9178.553681,766.095498
730.675100,-3775.050304,-8438.347739,153.219100
730.675412,-3478.967927,-9104.533087,383.047749
730.675725,-3404.947333,-8808.450710,306.438199
730.676038,-3478.967927,-8882.471304,153.219100
730.676350,-3552.988522,-9030.512492,306.438199
730.676663,-3552.988522,-8956.491898,229.828649
730.676976,-3775.050304,-9104.533087,76.609550
730.677288,-3330.926739,-9104.533087,459.657299
730.677601,-3701.029710,-9030.512492,229.828649
730.677914,-4071.132681,-8438.347739,153.219100
730.678226,-3923.091493,-8956.491898,-229.828649
730.678539,-4145.153275,-8808.450710,153.219100
730.678852,-4145.153275,-8882.471304,229.828649
730.679164,-4293.194464,-8808.450710,153.219100
730.679477,-3997.112087,-8734.430116,0.000000
730.679790,-4071.132681,-9104.533087,-229.828649
730.680102,-3478.967927,-8586.388927,459.657299
730.680415,-3627.009116,-8438.347739,0.000000
730.680728,-3849.070898,-8364.327145,76.609550
730.681040,-3701.029710,-8512.368333,0.000000
730.681353,-3478.967927,-8956.491898,0.000000
730.681666,-3182.885551,-9030.512492,306.438199
730.681978,-3256.906145,-9252.574275,383.047749
730.682291,-3182.885551,-9474.636058,1532.190996
730.682603,-3256.906145,-9178.553681,1149.143247
730.682916,-3478.967927,-9326.594869,766.095498
730.683229,-3627.009116,-9622.677246,153.219100
730.683541,-3552.988522,-9178.553681,383.047749
730.683854,-3627.009116,-9178.553681,383.047749
730.684167,-3256.906145,-9030.512492,229.828649
730.684479,-3404.947333,-8956.491898,459.657299
730.684792,-3182.885551,-8660.409521,229.828649
730.685105,-3182.885551,-8364.327145,536.266849
730.685417,-2738.761985,-9104.533087,0.000000
730.685730,-2738.761985,-8660.409521,153.219100
730.686043,-2960.823768,-8438.347739,459.657299
730.686355,-2664.741391,-9030.512492,1072.533697
730.686668,-2664.741391,-8808.450710,766.095498
730.686981,-2886.803174,-9104.533087,1378.971896
730.687293,-3108.864956,-8882.471304,1225.752797
730.687606,-2960.823768,-9400.615463,1225.752797
730.687919,-2368.659014,-9400.615463,766.095498
730.688231,-3330.926739,-8956.491898,842.705048
730.688544,-3775.050304,-9252.574275,1532.190996
730.688857,-3330.926739,-9474.636058,1072.533697
730.689169,-3034.844362,-8734.430116,919.314598
730.689482,-3108.864956,-8586.388927,842.705048
730.689795,-2960.823768,-8438.347739,1302.362347
730.690107,-3182.885551,-8216.285956,842.705048
730.690420,-3849.070898,-8512.368333,919.314598
730.690733,-3627.009116,-8438.347739,1149.143247
730.691045,-3034.844362,-8364.327145,689.485948
730.691358,-2886.803174,-8586.388927,612.876398
730.691671,-2738.761985,-8586.388927,1838.629195
730.691983,-3034.844362,-8586.388927,1532.190996
730.692296,-3182.885551,-8586.388927,612.876398
730.692609,-3701.029710,-8734.430116,1149.143247
730.692921,-3404.947333,-9178.553681,1072.533697
730.693234,-3627.009116,-9104.533087,1072.533697
730.693547,-3478.967927,-9252.574275,1072.533697
730.693859,-3923.091493,-9252.574275,1608.800546
730.694172,-3552.988522,-9178.553681,1915.238745
730.694485,-3923.091493,-8808.450710,689.485948
730.694797,-3923.091493,-8808.450710,229.828649
730.695110,-3701.029710,-8216.285956,0.000000
730.695422,-3404.947333,-8364.327145,153.219100
730.695735,-3627.009116,-8364.327145,306.438199
730.696048,-3775.050304,-8142.265362,689.485948
730.696360,-3923.091493,-8438.347739,995.924147
730.696673,-3701.029710,-8956.491898,1378.971896
730.696986,-3775.050304,-9030.512492,842.705048
730.697298,-3627.009116,-8956.491898,995.924147
730.697611,-3997.112087,-9030.512492,1225.752797
730.697924,-3849.070898,-9178.553681,919.314598
730.698236,-3552.988522,-8882.471304,689.485948
730.698549,-4145.153275,-8808.450710,612.876398
730.698862,-3849.070898,-8364.327145,306.438199
730.699174,-3256.906145,-8586.388927,0.000000
730.699487,-3330.926739,-8734.430116,-153.219100
730.699800,-3701.029710,-8512.368333,229.828649
730.700112,-3478.967927,-9104.533087,689.485948
730.700425,-3627.009116,-9178.553681,842.705048
730.700738,-3478.967927,-9326.594869,536.266849
730.701050,-3701.029710,-9104.533087,766.095498
730.701363,-3775.050304,-9474.636058,689.485948
730.701676,-3256.906145,-9474.636058,459.657299
730.701988,-3627.009116,-8734.430116,612.876398
730.702301,-3552.988522,-8734.430116,459.657299
730.702614,-3627.009116,-9178.553681,459.657299
730.702926,-3701.029710,-9030.512492,229.828649
730.703239,-3404.947333,-8660.409521,153.219100
730.703552,-3404.947333,-8586.388927,459.657299
730.703864,-3552.988522,-8512.368333,536.266849
730.704177,-3627.009116,-8586.388927,1149.143247
730.704490,-3034.844362,-8808.450710,919.314598
730.704802,-3034.844362,-9104.533087,1072.533697
730.705115,-3108.864956,-9030.512492,459.657299
730.705428,-3775.050304,-9030.512492,383.047749
730.705740,-3478.967927,-9104.533087,842.705048
730.706053,-3478.967927,-9178.553681,995.924147
730.706366,-3849.070898,-8808.450710,919.314598
730.706678,-3923.091493,-8512.368333,919.314598
730.706991,-3256.906145,-9474.636058,689.485948
730.707304,-3034.844362,-9178.553681,536.266849
730.707616,-3775.050304,-8216.285956,229.828649
730.707929,-3849.070898,-8438.347739,689.485948
730.708241,-3330.926739,-8956.491898,536.266849
730.708554,-3108.864956,-8216.285956,0.000000
730.708867,-3182.885551,-7846.182985,536.266849
730.709179,-3330.926739,-8438.347739,766.095498
730.709492,-2960.823768,-9104.533087,1072.533697
730.709805,-2664.741391,-9252.574275,383.047749
730.710117,-3330.926739,-8734.430116,842.705048
730.710430,-3849.070898,-9030.512492,995.924147
730.710743,-3404.947333,-9474.636058,766.095498
730.711055,-3256.906145,-8068.244768,0.000000
730.711368,-3552.988522,-8438.347739,536.266849
730.711681,-3627.009116,-8586.388927,-459.657299
730.711993,-3552.988522,-8882.471304,-306.438199
730.712306,-3108.864956,-8808.450710,-306.438199
730.712619,-2960.823768,-8882.471304,536.266849
730.712931,-2960.823768,-9104.533087,612.876398
730.713244,-2664.741391,-9030.512492,229.828649
730.713557,-2072.576638,-9104.533087,0.000000
730.713869,-1850.514855,-9326.594869,459.657299
730.714182,-2442.679609,-9030.512492,-306.438199
730.714495,-1850.514855,-9178.553681,306.438199
730.714807,-1850.514855,-9400.615463,76.609550
730.715120,-1850.514855,-9474.636058,536.266849
730.715433,-2294.638420,-9770.718434,766.095498
730.715745,-2590.720797,-9548.656652,919.314598
730.716058,-2294.638420,-9770.718434,919.314598
730.716371,-2516.700203,-9696.697840,306.438199
730.716683,-2812.782580,-9252.574275,612.876398
730.716996,-3182.885551,-9400.615463,612.876398
730.717309,-3478.967927,-8956.491898,229.828649
730.717621,-3552.988522,-8808.450710,0.000000
730.717934,-3701.029710,-8956.491898,-153.219100
730.718247,-4219.173869,-8660.409521,76.609550
730.718559,-3478.967927,-9030.512492,0.000000
730.718872,-3478.967927,-8956.491898,153.219100
730.719185,-3849.070898,-8290.306550,536.266849
730.719497,-3997.112087,-8882.471304,1149.143247
730.719810,-3552.988522,-8808.450710,766.095498
730.720123,-3330.926739,-9178.553681,459.657299
730.720435,-3849.070898,-9252.574275,689.485948
730.720748,-4145.153275,-8882.471304,995.924147
730.721061,-4145.153275,-8660.409521,919.314598
730.721373,-4071.132681,-8512.368333,919.314598
730.721686,-4071.132681,-9178.553681,919.314598
730.721998,-4219.173869,-8364.327145,995.924147
730.722311,-4293.194464,-8512.368333,612.876398
730.722624,-3923.091493,-8586.388927,459.657299
730.722936,-3997.112087,-8438.347739,766.095498
730.723249,-4145.153275,-8068.244768,689.485948
730.723562,-3552.988522,-8142.265362,1302.362347
730.723874,-3923.091493,-8438.347739,1378.971896
730.724187,-3256.906145,-8586.388927,1225.752797
730.724500,-3182.885551,-8216.285956,1302.362347
730.724812,-3552.988522,-8586.388927,1072.533697
730.725125,-3182.885551,-8882.471304,1149.143247
730.725438,-3256.906145,-8956.491898,1149.143247
730.725750,-3182.885551,-9030.512492,1149.143247
730.726063,-3034.844362,-8734.430116,1378.971896
730.726376,-2812.782580,-8808.450710,995.924147
730.726688,-3108.864956,-8882.471304,842.705048
730.727001,-3330.926739,-8290.306550,536.266849
730.727314,-3182.885551,-8660.409521,995.924147
730.727626,-3108.864956,-8882.471304,995.924147
730.727939,-3182.885551,-8808.450710,612.876398
730.728252,-3330.926739,-8808.450710,919.314598
730.728564,-3478.967927,-8734.430116,1302.362347
730.728877,-3256.906145,-8882.471304,1455.581446
730.729190,-2812.782580,-9030.512492,766.095498
730.729502,-2960.823768,-8438.347739,0.000000
730.729815,-3108.864956,-8956.491898,383.047749
730.730128,-3034.844362,-9104.533087,536.266849
730.730440,-2960.823768,-9030.512492,689.485948
730.730753,-2886.803174,-9104.533087,919.314598
730.731066,-3108.864956,-9104.533087,1225.752797
730.731378,-3552.988522,-8956.491898,1149.143247
730.731691,-2886.803174,-9030.512492,1149.143247
730.732004,-2812.782580,-9104.533087,536.266849
730.732316,-3034.844362,-9178.553681,306.438199
730.732629,-3108.864956,-9104.533087,306.438199
730.732942,-2960.823768,-9030.512492,383.047749
730.733254,-2812.782580,-9030.512492,229.828649
730.733567,-2886.803174,-9400.615463,383.047749
730.733880,-3552.988522,-9178.553681,0.000000
730.734192,-3478.967927,-8956.491898,229.828649
730.734505,-3330.926739,-9400.615463,612.876398
730.734817,-3256.906145,-9178.553681,383.047749
730.735130,-3330.926739,-9252.574275,536.266849
730.735443,-3627.009116,-8956.491898,153.219100
730.735755,-3552.988522,-8882.471304,612.876398
730.736068,-3627.009116,-8734.430116,229.828649
730.736381,-3849.070898,-8956.491898,383.047749
730.736693,-3627.009116,-8956.491898,536.266849
730.737006,-3923.091493,-8956.491898,459.657299
730.737319,-3997.112087,-8808.450710,306.438199
730.737631,-3923.091493,-9030.512492,76.609550
730.737944,-4071.132681,-8882.471304,0.000000
730.738257,-3923.091493,-8734.430116,0.000000
730.738569,-3701.029710,-8882.471304,229.828649
730.738882,-4219.173869,-8512.368333,76.609550
730.739195,-3775.050304,-8660.409521,536.266849
730.739507,-4071.132681,-8734.430116,536.266849
730.739820,-3997.112087,-9030.512492,842.705048
730.740133,-4293.194464,-8734.430116,766.095498
730.740445,-4441.235652,-8808.450710,536.266849
730.740758,-4515.256246,-9030.512492,689.485948
730.741071,-3997.112087,-8290.306550,842.705048
730.741383,-4441.235652,-8216.285956,766.095498
730.741696,-4071.132681,-8512.368333,536.266849
730.742009,-3997.112087,-8364.327145,536.266849
730.742321,-3849.070898,-8290.306550,459.657299
730.742634,-3923.091493,-8142.265362,229.828649
730.742947,-3552.988522,-8068.244768,459.657299
730.743259,-2442.679609,-8956.491898,306.438199
730.743572,-2294.638420,-8734.430116,689.485948
730.743885,-2294.638420,-8586.388927,1072.533697
730.744197,-2368.659014,-9178.553681,1072.533697
730.744510,-2294.638420,-9400.615463,1072.533697
730.744823,-2294.638420,-9622.677246,1378.971896
730.745135,-2442.679609,-9696.697840,1455.581446
730.745448,-1924.535449,-9918.759623,1378.971896
730.745761,-2368.659014,-9400.615463,1838.629195
730.746073,-2590.720797,-9474.636058,1455.581446
730.746386,-3108.864956,-9030.512492,1378.971896
730.746699,-2886.803174,-9104.533087,919.314598
730.747011,-3404.947333,-8808.450710,536.266849
730.747324,-3627.009116,-8660.409521,612.876398
730.747636,-3627.009116,-8512.368333,536.266849
730.747949,-3923.091493,-8660.409521,1455.581446
730.748262,-4219.173869,-8586.388927,995.924147
730.748574,-4071.132681,-8364.327145,1149.143247
730.748887,-4367.215058,-8364.327145,1225.752797
730.749200,-4145.153275,-8586.388927,1455.581446
730.749512,-4367.215058,-8364.327145,1378.971896
730.749825,-4293.194464,-8660.409521,1532.190996
730.750138,-4219.173869,-8882.471304,1302.362347
730.750450,-3849.070898,-8882.471304,995.924147
730.750763,-3849.070898,-8438.347739,1225.752797
730.751076,-4219.173869,-8956.491898,1762.019645
730.751388,-4219.173869,-8882.471304,1532.190996
730.751701,-4441.235652,-8882.471304,1685.410096
730.752014,-4515.256246,-8660.409521,1302.362347
730.752326,-4071.132681,-8956.491898,842.705048
730.752639,-3997.112087,-8290.306550,919.314598
730.752952,-4589.276840,-8068.244768,1455.581446
730.753264,-4367.215058,-8290.306550,1608.800546
730.753577,-3997.112087,-8586.388927,1762.019645
730.753890,-4071.132681,-8586.388927,1532.190996
730.754202,-4367.215058,-8438.347739,1532.190996
730.754515,-4293.194464,-8660.409521,1762.019645
730.754828,-4293.194464,-8660.409521,1762.019645
730.755140,-4219.173869,-8512.368333,1685.410096
730.755453,-4293.194464,-8364.327145,1072.533697
730.755766,-4367.215058,-8512.368333,1608.800546
730.756078,-4367.215058,-8660.409521,1302.362347
730.756391,-4441.235652,-8438.347739,1302.362347
730.756704,-4293.194464,-8660.409521,1455.581446
730.757016,-4293.194464,-8734.430116,1685.410096
730.757329,-4293.194464,-8882.471304,1685.410096
730.757642,-4367.215058,-8586.388927,1991.848295
730.757954,-4367.215058,-8586.388927,1762.019645
730.758267,-3997.112087,-8882.471304,1378.971896
730.758580,-4071.132681,-8586.388927,1685.410096
730.758892,-4071.132681,-8216.285956,1455.581446
730.759205,-3997.112087,-8364.327145,1302.362347
730.759518,-3849.070898,-8438.347739,1532.190996
730.759830,-3775.050304,-8438.347739,1685.410096
730.760143,-3775.050304,-8438.347739,1455.581446
730.760456,-3552.988522,-8512.368333,1685.410096
730.760768,-3478.967927,-8586.388927,842.705048
730.761081,-3404.947333,-8660.409521,1225.752797
730.761393,-3182.885551,-8734.430116,1149.143247
730.761706,-3256.906145,-8734.430116,919.314598
730.762019,-3108.864956,-8808.450710,919.314598
730.762331,-3330.926739,-8586.388927,1608.800546
730.762644,-2590.720797,-8808.450710,1072.533697
730.762957,-2812.782580,-8956.491898,1149.143247
730.763269,-2886.803174,-8808.450710,1149.143247
730.763582,-2886.803174,-9178.553681,1455.581446
730.763895,-2738.761985,-9104.533087,919.314598
730.764207,-2960.823768,-9178.553681,612.876398
730.764520,-3034.844362,-9178.553681,689.485948
730.764833,-3108.864956,-9178.553681,383.047749
730.765145,-2812.782580,-9178.553681,1149.143247
730.765458,-3330.926739,-9178.553681,1225.752797
730.765771,-3923.091493,-8882.471304,689.485948
730.766083,-3775.050304,-8956.491898,612.876398
730.766396,-3849.070898,-8956.491898,766.095498
730.766709,-4145.153275,-8882.471304,612.876398
730.767021,-4293.194464,-8956.491898,536.266849
730.767334,-4293.194464,-8586.388927,0.000000
730.767647,-4515.256246,-8660.409521,0.000000
730.767959,-4663.297435,-7920.203579,-229.828649
730.768272,-4441.235652,-7994.224174,0.000000
730.768584,-4441.235652,-8586.388927,536.266849
730.768897,-4663.297435,-8808.450710,842.705048
730.769210,-4293.194464,-8956.491898,1072.533697
730.769522,-4293.194464,-9178.553681,1072.533697
730.769835,-4515.256246,-8808.450710,842.705048
730.770148,-4145.153275,-8808.450710,766.095498
730.770460,-4367.215058,-8660.409521,919.314598
730.770773,-4367.215058,-8808.450710,536.266849
730.771086,-4663.297435,-8216.285956,612.876398
730.771398,-4367.215058,-8512.368333,919.314598
730.771711,-4515.256246,-8660.409521,612.876398
730.772024,-4663.297435,-8808.450710,842.705048
730.772336,-4515.256246,-8660.409521,842.705048
730.772649,-4515.256246,-8512.368333,1302.362347
730.772961,-4367.215058,-8734.430116,1532.190996
730.773274,-4219.173869,-8364.327145,995.924147
730.773587,-4441.235652,-8290.306550,1149.143247
730.773899,-4219.173869,-8808.450710,1072.533697
730.774212,-3997.112087,-9030.512492,1149.143247
730.774525,-3997.112087,-8586.388927,1149.143247
730.774837,-3923.091493,-8734.430116,1149.143247
730.775150,-3849.070898,-8734.430116,2145.067394
730.775463,-3478.967927,-8808.450710,1991.848295
730.775775,-3701.029710,-8808.450710,1455.581446
730.776088,-3478.967927,-8882.471304,1532.190996
730.776400,-3330.926739,-8882.471304,1149.143247
730.776713,-3108.864956,-8734.430116,1455.581446
730.777026,-3256.906145,-8586.388927,1302.362347
730.777338,-3108.864956,-9030.512492,1685.410096
730.777651,-3256.906145,-8586.388927,1838.629195
730.777964,-3182.885551,-8512.368333,1302.362347
730.778276,-3330.926739,-8586.388927,1762.019645
730.778589,-3552.988522,-8808.450710,1532.190996
730.778902,-3627.009116,-8808.450710,1762.019645
730.779214,-3627.009116,-8808.450710,1915.238745
730.779527,-3775.050304,-8660.409521,1302.362347
730.779840,-3849.070898,-8438.347739,1685.410096
730.780152,-3404.947333,-8660.409521,1608.800546
730.780465,-3701.029710,-8142.265362,1378.971896
730.780777,-3330.926739,-8956.491898,1378.971896
730.781090,-3627.009116,-8290.306550,1302.362347
730.781403,-3701.029710,-8586.388927,1378.971896
730.781715,-3552.988522,-8660.409521,1608.800546
730.782028,-3330.926739,-8586.388927,1762.019645
730.782341,-3404.947333,-8734.430116,1302.362347
730.782653,-3182.885551,-8956.491898,1455.581446
730.782966,-3182.885551,-8660.409521,1455.581446
730.783279,-3552.988522,-8734.430116,1302.362347
730.783591,-4219.173869,-8438.347739,1225.752797
730.783904,-4145.153275,-9104.533087,1608.800546
730.784217,-3923.091493,-8882.471304,1302.362347
730.784529,-3627.009116,-8956.491898,766.095498
730.784842,-4663.297435,-8364.327145,1685.410096
730.785154,-4885.359217,-8290.306550,1455.581446
730.785467,-3701.029710,-8734.430116,995.924147
730.785780,-3923.091493,-8290.306550,229.828649
730.786092,-4515.256246,-8068.244768,612.876398
730.786405,-4441.235652,-8586.388927,842.705048
730.786718,-4219.173869,-8660.409521,612.876398
730.787030,-3997.112087,-8364.327145,766.095498
730.787343,-3997.112087,-8660.409521,995.924147
730.787656,-3478.967927,-8586.388927,919.314598
730.787968,-4219.173869,-8808.450710,1149.143247
730.788281,-4293.194464,-9178.553681,1225.752797
730.788593,-4367.215058,-8956.491898,1225.752797
730.788906,-4071.132681,-9178.553681,995.924147
730.789219,-4145.153275,-9030.512492,1302.362347
730.789531,-3923.091493,-8808.450710,1072.533697
730.789844,-3552.988522,-8660.409521,842.705048
730.790157,-3923.091493,-8438.347739,842.705048
730.790469,-4293.194464,-8512.368333,383.047749
730.790782,-4145.153275,-8512.368333,153.219100
730.791095,-3775.050304,-8512.368333,229.828649
730.791407,-3923.091493,-8660.409521,689.485948
730.791720,-3923.091493,-8734.430116,1455.581446
730.792033,-3849.070898,-8216.285956,842.705048
730.792345,-3923.091493,-8586.388927,689.485948
730.792658,-3775.050304,-8882.471304,1685.410096
730.792970,-3256.906145,-9326.594869,919.314598
730.793283,-3034.844362,-9400.615463,612.876398
730.793596,-3552.988522,-8882.471304,766.095498
730.793908,-3478.967927,-8808.450710,689.485948
730.794221,-3552.988522,-8808.450710,1072.533697
730.794534,-2960.823768,-8956.491898,766.095498
730.794846,-2738.761985,-8956.491898,995.924147
730.795159,-3478.967927,-9178.553681,689.485948
730.795472,-3775.050304,-9178.553681,919.314598
730.795784,-3108.864956,-8956.491898,1225.752797
730.796097,-3552.988522,-9030.512492,1378.971896
730.796409,-4293.194464,-8882.471304,1532.190996
730.796722,-4145.153275,-8734.430116,1455.581446
730.797035,-3627.009116,-8956.491898,1302.362347
730.797347,-3701.029710,-8364.327145,1302.362347
730.797660,-4219.173869,-8290.306550,1072.533697
730.797973,-3627.009116,-8290.306550,919.314598
730.798285,-3552.988522,-8512.368333,689.485948
730.798598,-3404.947333,-8438.347739,306.438199
730.798911,-3701.029710,-8290.306550,689.485948
730.799223,-3849.070898,-8216.285956,842.705048
730.799536,-3627.009116,-8438.347739,1455.581446
730.799849,-3034.844362,-8660.409521,2298.286494
730.800161,-3849.070898,-8512.368333,1991.848295
730.800474,-4145.153275,-9030.512492,1915.238745
730.800786,-3997.112087,-8956.491898,1762.019645
730.801099,-3701.029710,-8808.450710,995.924147
730.801412,-3849.070898,-8586.388927,766.095498
730.801724,-4367.215058,-8438.347739,1838.629195
730.802037,-3997.112087,-8216.285956,1915.238745
730.802350,-3923.091493,-8068.244768,459.657299
730.802662,-3923.091493,-8290.306550,459.657299
730.802975,-3997.112087,-8290.306550,766.095498
730.803288,-3849.070898,-8512.368333,612.876398
730.803600,-3108.864956,-8956.491898,995.924147
730.803913,-3330.926739,-8882.471304,1378.971896
730.804225,-3552.988522,-8438.347739,1532.190996
730.804538,-3182.885551,-8956.491898,1991.848295
730.804851,-2886.803174,-9178.553681,1455.581446
730.805163,-3478.967927,-8808.450710,1072.533697
730.805476,-4145.153275,-9178.553681,1762.019645
730.805789,-4293.194464,-9548.656652,1991.848295
730.806101,-3923.091493,-9326.594869,1532.190996
730.806414,-3775.050304,-8734.430116,919.314598
730.806727,-4737.318029,-8734.430116,536.266849
730.807039,-4515.256246,-8586.388927,842.705048
730.807352,-3923.091493,-8438.347739,536.266849
730.807665,-3701.029710,-8364.327145,306.438199
730.807977,-3997.112087,-8438.347739,842.705048
730.808290,-3775.050304,-8956.491898,1455.581446
730.808602,-3330.926739,-8808.450710,1685.410096
730.808915,-3552.988522,-8808.450710,1838.629195
730.809228,-4071.132681,-9030.512492,2068.457845
730.809540,-5033.400406,-8512.368333,2451.505594
730.809853,-4737.318029,-8808.450710,1532.190996
730.810166,-4589.276840,-8956.491898,1378.971896
730.810478,-5181.441594,-8882.471304,1455.581446
730.810791,-5403.503377,-8660.409521,1762.019645
730.811104,-5181.441594,-8364.327145,1915.238745
730.811416,-5625.565159,-7920.203579,1072.533697
730.811729,-5847.626942,-7994.224174,1302.362347
730.812042,-5181.441594,-7846.182985,1072.533697
730.812354,-4663.297435,-7476.080014,306.438199
730.812667,-4441.235652,-7846.182985,842.705048
730.812979,-4293.194464,-7772.162391,1225.752797
730.813292,-3997.112087,-8068.244768,1455.581446
730.813605,-3923.091493,-8364.327145,2298.286494
730.813917,-3330.926739,-8438.347739,919.314598
730.814230,-2886.803174,-8882.471304,1072.533697
730.814543,-3108.864956,-8808.450710,1915.238745
730.814855,-3404.947333,-9030.512492,2451.505594
730.815168,-3330.926739,-9326.594869,2221.676944
730.815481,-3552.988522,-9104.533087,1608.800546
730.815793,-3849.070898,-9326.594869,1072.533697
730.816106,-4293.194464,-8956.491898,1072.533697
730.816418,-3627.009116,-8808.450710,842.705048
730.816731,-3701.029710,-8660.409521,383.047749
730.817044,-4441.235652,-7994.224174,1302.362347
730.817356,-4071.132681,-7994.224174,842.705048
730.817669,-3404.947333,-8068.244768,612.876398
730.817982,-3478.967927,-8364.327145,536.266849
730.818294,-3552.988522,-8068.244768,383.047749
730.818607,-3478.967927,-8364.327145,1685.410096
730.818920,-2886.803174,-8808.450710,1302.362347
730.819232,-3182.885551,-8660.409521,1532.190996
730.819545,-3182.885551,-9104.533087,1532.190996
730.819858,-3404.947333,-9326.594869,1225.752797
730.820170,-3034.844362,-9548.656652,919.314598
730.820483,-3182.885551,-9474.636058,919.314598
730.820795,-3478.967927,-9252.574275,1455.581446
730.821108,-3923.091493,-9326.594869,1378.971896
730.821421,-3775.050304,-8882.471304,1072.533697
730.821733,-3627.009116,-8586.388927,689.485948
730.822046,-3701.029710,-8808.450710,536.266849
730.822359,-3923.091493,-8808.450710,306.438199
730.822671,-3775.050304,-8512.368333,536.266849
730.822984,-3701.029710,-8586.388927,612.876398
730.823297,-3849.070898,-8660.409521,612.876398
730.823609,-3923.091493,-8586.388927,1149.143247
730.823922,-3923.091493,-8216.285956,689.485948
730.824234,-3775.050304,-8956.491898,919.314598
730.824547,-3923.091493,-8956.491898,1072.533697
730.824860,-4071.132681,-9178.553681,1225.752797
730.825172,-3997.112087,-9252.574275,995.924147
730.825485,-4219.173869,-8882.471304,995.924147
730.825798,-4071.132681,-8660.409521,1149.143247
730.826110,-4219.173869,-8956.491898,919.314598
730.826423,-4589.276840,-8512.368333,1149.143247
730.826736,-4737.318029,-8586.388927,1532.190996
730.827048,-4589.276840,-8586.388927,1225.752797
730.827361,-4145.153275,-8290.306550,919.314598
730.827674,-4293.194464,-8364.327145,842.705048
730.827986,-4219.173869,-8216.285956,612.876398
730.828299,-4367.215058,-7772.162391,689.485948
730.828611,-4071.132681,-8290.306550,1302.362347
730.828924,-4293.194464,-7994.224174,1378.971896
730.829237,-3997.112087,-8734.430116,1302.362347
730.829549,-3849.070898,-8734.430116,1225.752797
730.829862,-3849.070898,-9030.512492,1685.410096
730.830175,-4293.194464,-8956.491898,1532.190996
730.830487,-4071.132681,-8586.388927,1149.143247
730.830800,-3997.112087,-8068.244768,1149.143247
730.831113,-3849.070898,-8660.409521,1378.971896
730.831425,-4367.215058,-8290.306550,919.314598
730.831738,-4071.132681,-8364.327145,919.314598
730.832051,-4293.194464,-8364.327145,995.924147
730.832363,-4293.194464,-8364.327145,1302.362347
730.832676,-4145.153275,-8438.347739,1225.752797
730.832988,-3701.029710,-8438.347739,1225.752797
730.833301,-3701.029710,-8956.491898,1378.971896
730.833614,-3330.926739,-8734.430116,1608.800546
730.833926,-3404.947333,-8586.388927,1149.143247
730.834239,-3627.009116,-9030.512492,1378.971896
730.834552,-3552.988522,-8956.491898,1762.019645
730.834864,-3182.885551,-9030.512492,1608.800546
730.835177,-3108.864956,-9178.553681,1915.238745
730.835490,-2960.823768,-8956.491898,842.705048
730.835802,-3330.926739,-8586.388927,1302.362347
730.836115,-3849.070898,-8808.450710,1378.971896
730.836427,-3701.029710,-8956.491898,1608.800546
730.836740,-3034.844362,-9252.574275,1455.581446
730.837053,-3034.844362,-8660.409521,995.924147
730.837365,-2960.823768,-8734.430116,1072.533697
730.837678,-3478.967927,-8364.327145,1378.971896
730.837991,-3775.050304,-8882.471304,1915.238745
730.838303,-3478.967927,-9104.533087,1838.629195
730.838616,-3775.050304,-8956.491898,2068.457845
730.838929,-3478.967927,-8956.491898,1378.971896
730.839241,-3552.988522,-8808.450710,1532.190996
730.839554,-3775.050304,-8808.450710,1608.800546
730.839867,-4293.194464,-8364.327145,1532.190996
730.840179,-4145.153275,-8512.368333,1685.410096
730.840492,-4219.173869,-8364.327145,1455.581446
730.840804,-4071.132681,-8364.327145,995.924147
730.841117,-3849.070898,-8364.327145,1225.752797
730.841430,-4145.153275,-8216.285956,1685.410096
730.841742,-4219.173869,-8216.285956,1608.800546
730.842055,-3923.091493,-8660.409521,1072.533697
730.842368,-3997.112087,-8586.388927,842.705048
730.842680,-4071.132681,-8512.368333,153.219100
730.842993,-4293.194464,-8364.327145,995.924147
730.843306,-4441.235652,-8290.306550,919.314598
730.843618,-4071.132681,-8882.471304,1072.533697
730.843931,-3775.050304,-8734.430116,1072.533697
730.844243,-3701.029710,-8586.388927,919.314598
730.844556,-3627.009116,-9030.512492,766.095498
730.844869,-3478.967927,-8734.430116,766.095498
730.845181,-3108.864956,-8512.368333,0.000000
730.845494,-3404.947333,-8142.265362,459.657299
730.845807,-3256.906145,-8734.430116,612.876398
730.846119,-2738.761985,-8808.450710,229.828649
730.846432,-2516.700203,-8956.491898,153.219100
730.846745,-2886.803174,-9252.574275,0.000000
730.847057,-2886.803174,-9474.636058,459.657299
730.847370,-2664.741391,-9844.739029,536.266849
730.847683,-2368.659014,-9030.512492,306.438199
730.847995,-2516.700203,-9474.636058,459.657299
730.848308,-2960.823768,-9474.636058,0.000000
730.848620,-2664.741391,-8956.491898,0.000000
730.848933,-3108.864956,-9030.512492,-842.705048
730.849246,-3404.947333,-9178.553681,-383.047749
730.849558,-3330.926739,-9252.574275,0.000000
730.849871,-3256.906145,-9474.636058,76.609550
730.850184,-3552.988522,-9178.553681,383.047749
730.850496,-3404.947333,-8956.491898,536.266849
730.850809,-3552.988522,-9030.512492,229.828649
730.851122,-3849.070898,-8956.491898,-153.219100
730.851434,-3849.070898,-8660.409521,-612.876398
730.851747,-3404.947333,-8882.471304,-842.705048
730.852060,-3404.947333,-8956.491898,-842.705048
730.852372,-3404.947333,-8734.430116,-306.438199
730.852685,-3330.926739,-9104.533087,842.705048
730.852997,-3034.844362,-9178.553681,536.266849
730.853310,-3034.844362,-9622.677246,76.609550
730.853623,-2960.823768,-9178.553681,689.485948
730.853935,-3034.844362,-9178.553681,229.828649
730.854248,-2738.761985,-9252.574275,0.000000
730.854561,-3256.906145,-9178.553681,153.219100
730.854873,-3256.906145,-8956.491898,612.876398
730.855186,-3108.864956,-9178.553681,536.266849
730.855499,-3404.947333,-9326.594869,689.485948
730.855811,-3627.009116,-8734.430116,689.485948
730.856124,-3404.947333,-8882.471304,383.047749
730.856436,-3478.967927,-9030.512492,689.485948
730.856749,-3775.050304,-8882.471304,459.657299
730.857062,-3923.091493,-8586.388927,306.438199
730.857374,-3701.029710,-8438.347739,842.705048
730.857687,-3330.926739,-8364.327145,153.219100
730.858000,-3478.967927,-8364.327145,689.485948
730.858312,-3627.009116,-8512.368333,995.924147
730.858625,-3182.885551,-8586.388927,995.924147
730.858938,-3478.967927,-9104.533087,1149.143247
730.859250,-3627.009116,-9030.512492,1149.143247
730.859563,-3552.988522,-8956.491898,1302.362347
730.859876,-3552.988522,-9178.553681,1072.533697
730.860188,-3256.906145,-8364.327145,1072.533697
730.860501,-3256.906145,-8586.388927,689.485948
730.860813,-3627.009116,-8438.347739,1378.971896
730.861126,-3404.947333,-8734.430116,1072.533697
730.861439,-3627.009116,-8808.450710,842.705048
730.861751,-3478.967927,-8734.430116,766.095498
730.862064,-3627.009116,-8660.409521,842.705048
730.862377,-3627.009116,-8660.409521,1302.362347
730.862689,-3478.967927,-8512.368333,995.924147
730.863002,-3478.967927,-8438.347739,995.924147
730.863315,-3256.906145,-8734.430116,689.485948
730.863627,-3108.864956,-8734.430116,766.095498
730.863940,-3182.885551,-8808.450710,1149.143247
730.864252,-3034.844362,-8956.491898,1302.362347
730.864565,-3108.864956,-9104.533087,1149.143247
730.864878,-2960.823768,-9104.533087,1455.581446
730.865190,-3108.864956,-9178.553681,1302.362347
730.865503,-2886.803174,-9178.553681,1072.533697
730.865816,-3182.885551,-9178.553681,1302.362347
730.866128,-2886.803174,-9326.594869,766.095498
730.866441,-2812.782580,-9178.553681,612.876398
730.866754,-2886.803174,-9030.512492,459.657299
730.867066,-2960.823768,-8956.491898,612.876398
730.867379,-2738.761985,-8882.471304,919.314598
730.867692,-2886.803174,-9178.553681,612.876398
730.868004,-2590.720797,-9178.553681,919.314598
730.868317,-2812.782580,-8956.491898,995.924147
730.868630,-3182.885551,-9252.574275,995.924147
730.868942,-3256.906145,-8956.491898,1072.533697
730.869255,-3182.885551,-8956.491898,766.095498
730.869567,-2960.823768,-8808.450710,919.314598
730.869880,-3552.988522,-8808.450710,1302.362347
730.870193,-3256.906145,-8956.491898,153.219100
730.870505,-3256.906145,-8882.471304,383.047749
730.870818,-3404.947333,-8808.450710,76.609550
730.871131,-3330.926739,-8956.491898,153.219100
730.871443,-3330.926739,-8956.491898,306.438199
730.871756,-3552.988522,-8956.491898,306.438199
730.872069,-3478.967927,-8586.388927,459.657299
730.872381,-3034.844362,-9030.512492,459.657299
730.872694,-3108.864956,-8956.491898,536.266849
730.873007,-3256.906145,-8956.491898,536.266849
730.873319,-3552.988522,-8882.471304,229.828649
730.873632,-3849.070898,-8808.450710,153.219100
730.873945,-3997.112087,-8882.471304,229.828649
730.874257,-3997.112087,-8734.430116,383.047749
730.874570,-3849.070898,-8882.471304,842.705048
730.874882,-3923.091493,-8660.409521,76.609550
730.875195,-4071.132681,-8586.388927,0.000000
730.875508,-4219.173869,-8586.388927,0.000000
730.875820,-3701.029710,-8808.450710,-229.828649
730.876133,-3552.988522,-8660.409521,-153.219100
730.876446,-3330.926739,-9104.533087,0.000000
730.876758,-2960.823768,-8956.491898,229.828649
730.877071,-3478.967927,-9030.512492,459.657299
730.877384,-3256.906145,-9326.594869,766.095498
730.877696,-3552.988522,-9326.594869,459.657299
730.878009,-3627.009116,-9178.553681,383.047749
730.878322,-3627.009116,-9326.594869,612.876398
730.878634,-3627.009116,-9252.574275,612.876398
730.878947,-3404.947333,-9326.594869,383.047749
730.879260,-3330.926739,-9030.512492,153.219100
730.879572,-3478.967927,-8882.471304,612.876398
730.879885,-3849.070898,-9030.512492,536.266849
730.880197,-2960.823768,-8660.409521,689.485948
730.880510,-3182.885551,-8438.347739,0.000000
730.880823,-3701.029710,-8660.409521,766.095498
730.881135,-3034.844362,-9178.553681,1072.533697
730.881448,-2812.782580,-8808.450710,612.876398
730.881761,-2960.823768,-8734.430116,1149.143247
730.882073,-3108.864956,-8586.388927,766.095498
730.882386,-3330.926739,-9030.512492,919.314598
730.882699,-2886.803174,-9030.512492,919.314598
730.883011,-3701.029710,-8882.471304,1149.143247
730.883324,-2960.823768,-9252.574275,919.314598
730.883637,-2886.803174,-9252.574275,689.485948
730.883949,-3256.906145,-9030.512492,766.095498
730.884262,-3775.050304,-8734.430116,842.705048
730.884575,-3330.926739,-9030.512492,306.438199
730.884887,-3404.947333,-8882.471304,536.266849
730.885200,-3182.885551,-8660.409521,919.314598
730.885512,-3108.864956,-8586.388927,919.314598
730.885825,-3182.885551,-8586.388927,1072.533697
730.886138,-3330.926739,-8882.471304,1378.971896
730.886450,-3034.844362,-8512.368333,1072.533697
730.886763,-2960.823768,-8438.347739,536.266849
730.887076,-3478.967927,-8586.388927,1072.533697
730.887388,-3108.864956,-8512.368333,842.705048
730.887701,-2738.761985,-8660.409521,689.485948
730.888014,-3478.967927,-9104.533087,995.924147
730.888326,-3849.070898,-9252.574275,1455.581446
730.888639,-3627.009116,-9400.615463,1149.143247
730.888952,-3627.009116,-9326.594869,995.924147
730.889264,-4071.132681,-9178.553681,1455.581446
730.889577,-4071.132681,-8956.491898,612.876398
730.889890,-4145.153275,-8586.388927,689.485948
730.890202,-3997.112087,-8586.388927,612.876398
730.890515,-3849.070898,-8586.388927,459.657299
730.890827,-4145.153275,-8438.347739,459.657299
730.891140,-3923.091493,-8512.368333,536.266849
730.891453,-3997.112087,-7994.224174,612.876398
730.891765,-3552.988522,-8290.306550,383.047749
730.892078,-3701.029710,-8290.306550,536.266849
730.892391,-3478.967927,-8290.306550,766.095498
730.892703,-3404.947333,-8364.327145,536.266849
730.893016,-3330.926739,-9104.533087,459.657299
730.893329,-3849.070898,-9252.574275,766.095498
730.893641,-3923.091493,-9104.533087,1072.533697
730.893954,-3552.988522,-9178.553681,1532.190996
730.894267,-3182.885551,-9622.677246,1915.238745
730.894579,-3923.091493,-8882.471304,1072.533697
730.894892,-3478.967927,-8364.327145,689.485948
730.895205,-3701.029710,-8734.430116,229.828649
730.895517,-3775.050304,-9030.512492,383.047749
730.895830,-3552.988522,-8808.450710,0.000000
730.896142,-3330.926739,-8290.306550,536.266849
730.896455,-3701.029710,-8364.327145,919.314598
730.896768,-3701.029710,-8956.491898,842.705048
730.897080,-3701.029710,-9252.574275,459.657299
730.897393,-3256.906145,-8808.450710,612.876398
730.897706,-3256.906145,-8734.430116,383.047749
730.898018,-3330.926739,-9252.574275,689.485948
730.898331,-3256.906145,-9400.615463,919.314598
730.898644,-3330.926739,-8660.409521,995.924147
730.898956,-3627.009116,-8512.368333,229.828649
730.899269,-3478.967927,-9326.594869,1378.971896
730.899582,-3330.926739,-8882.471304,383.047749
730.899894,-3330.926739,-8808.450710,0.000000
730.900207,-3552.988522,-8660.409521,306.438199
730.900520,-3701.029710,-9178.553681,689.485948
730.900832,-3256.906145,-9104.533087,383.047749
730.901145,-2886.803174,-8660.409521,-153.219100
730.901457,-3404.947333,-8808.450710,459.657299
730.901770,-3849.070898,-9252.574275,536.266849
730.902083,-3034.844362,-9400.615463,0.000000
730.902395,-3034.844362,-8956.491898,383.047749
730.902708,-3478.967927,-8808.450710,536.266849
730.903021,-3478.967927,-9030.512492,842.705048
730.903333,-3330.926739,-9104.533087,383.047749
730.903646,-3108.864956,-8438.347739,0.000000
730.903959,-3182.885551,-8586.388927,153.219100
730.904271,-3108.864956,-8586.388927,229.828649
730.904584,-2812.782580,-8808.450710,-153.219100
730.904897,-2368.659014,-9030.512492,-153.219100
730.905209,-2368.659014,-9252.574275,229.828649
730.905522,-2886.803174,-9178.553681,536.266849
730.905835,-2960.823768,-9326.594869,612.876398
730.906147,-2220.617826,-9400.615463,1149.143247
730.906460,-2368.659014,-9474.636058,229.828649
730.906772,-2442.679609,-9622.677246,536.266849
730.907085,-2368.659014,-8882.471304,689.485948
730.907398,-2368.659014,-9400.615463,689.485948
730.907710,-2886.803174,-9548.656652,766.095498
730.908023,-3108.864956,-9326.594869,229.828649
730.908336,-3182.885551,-9252.574275,0.000000
730.908648,-3108.864956,-8586.388927,153.219100
730.908961,-3108.864956,-8734.430116,383.047749
730.909274,-3256.906145,-8438.347739,383.047749
730.909586,-3775.050304,-8734.430116,919.314598
730.909899,-3552.988522,-8734.430116,0.000000
730.910212,-3330.926739,-8882.471304,0.000000
730.910524,-3701.029710,-8882.471304,153.219100
730.910837,-3923.091493,-8956.491898,842.705048
730.911150,-3849.070898,-8586.388927,1149.143247
730.911462,-3478.967927,-8808.450710,995.924147
730.911775,-4441.235652,-8882.471304,995.924147
730.912087,-3627.009116,-9030.512492,995.924147
730.912400,-3701.029710,-9030.512492,306.438199
730.912713,-3404.947333,-9474.636058,612.876398
730.913025,-4071.132681,-8882.471304,919.314598
730.913338,-4071.132681,-8734.430116,995.924147
730.913651,-3256.906145,-8734.430116,689.485948
730.913963,-2886.803174,-8512.368333,842.705048
730.914276,-3701.029710,-8734.430116,229.828649
730.914589,-3256.906145,-8808.450710,229.828649
730.914901,-3478.967927,-8660.409521,536.266849
730.915214,-3256.906145,-9252.574275,995.924147
730.915527,-3552.988522,-8734.430116,1072.533697
730.915839,-3330.926739,-9104.533087,995.924147
730.916152,-3330.926739,-8882.471304,1149.143247
730.916465,-3330.926739,-8956.491898,842.705048
730.916777,-3330.926739,-8882.471304,919.314598
730.917090,-3478.967927,-9030.512492,919.314598
730.917402,-3627.009116,-8808.450710,766.095498
730.917715,-3330.926739,-8808.450710,689.485948
730.918028,-3404.947333,-8882.471304,689.485948
730.918340,-3182.885551,-8956.491898,689.485948
730.918653,-2960.823768,-9030.512492,1302.362347
730.918966,-3404.947333,-8512.368333,1225.752797
730.919278,-3256.906145,-8956.491898,842.705048
730.919591,-3256.906145,-8956.491898,689.485948
730.919904,-3330.926739,-8660.409521,766.095498
730.920216,-3330.926739,-8586.388927,995.924147
730.920529,-3404.947333,-8142.265362,612.876398
730.920842,-3478.967927,-8808.450710,1225.752797
730.921154,-3404.947333,-8808.450710,459.657299
730.921467,-3478.967927,-8882.471304,919.314598
730.921780,-3330.926739,-8956.491898,459.657299
730.922092,-3330.926739,-8956.491898,842.705048
730.922405,-3478.967927,-9030.512492,766.095498
730.922717,-3478.967927,-8956.491898,766.095498
730.923030,-3256.906145,-8586.388927,536.266849
730.923343,-2590.720797,-8808.450710,612.876398
730.923655,-3330.926739,-8290.306550,153.219100
730.923968,-2516.700203,-8512.368333,459.657299
730.924281,-2812.782580,-8660.409521,229.828649
730.924593,-2886.803174,-8808.450710,536.266849
730.924906,-2960.823768,-9178.553681,919.314598
730.925219,-2812.782580,-8956.491898,766.095498
730.925531,-3034.844362,-8956.491898,766.095498
730.925844,-3034.844362,-9178.553681,766.095498
730.926157,-2960.823768,-9030.512492,536.266849
730.926469,-3256.906145,-9252.574275,536.266849
730.926782,-3108.864956,-9326.594869,689.485948
730.927094,-3034.844362,-9474.636058,612.876398
730.927407,-3330.926739,-9252.574275,306.438199
730.927720,-3330.926739,-8956.491898,153.219100
730.928032,-3404.947333,-9252.574275,306.438199
730.928345,-3627.009116,-8734.430116,229.828649
730.928658,-3923.091493,-8956.491898,-689.485948
730.928970,-3775.050304,-8660.409521,0.000000
730.929283,-3701.029710,-8660.409521,153.219100
730.929596,-3701.029710,-8808.450710,229.828649
730.929908,-3923.091493,-9030.512492,536.266849
730.930221,-4293.194464,-8956.491898,1225.752797
730.930534,-4071.132681,-8956.491898,612.876398
730.930846,-3997.112087,-9178.553681,459.657299
730.931159,-3775.050304,-8882.471304,689.485948
730.931472,-4219.173869,-9104.533087,153.219100
730.931784,-4145.153275,-9104.533087,689.485948
730.932097,-4293.194464,-9030.512492,383.047749
730.932409,-4219.173869,-8882.471304,153.219100
730.932722,-4145.153275,-8808.450710,0.000000
730.933035,-3701.029710,-8586.388927,306.438199
730.933347,-3552.988522,-8660.409521,612.876398
730.933660,-3404.947333,-8734.430116,995.924147
730.933973,-2886.803174,-8734.430116,766.095498
730.934285,-2960.823768,-8956.491898,689.485948
730.934598,-3108.864956,-9030.512492,459.657299
730.934911,-2886.803174,-8956.491898,459.657299
730.935223,-2590.720797,-9252.574275,612.876398
730.935536,-2664.741391,-8660.409521,1149.143247
730.935849,-2368.659014,-9326.594869,995.924147
730.936161,-3034.844362,-8956.491898,1225.752797
730.936474,-2960.823768,-9326.594869,1378.971896
730.936787,-3552.988522,-9474.636058,919.314598
730.937099,-3404.947333,-9400.615463,689.485948
730.937412,-3330.926739,-9030.512492,536.266849
730.937724,-3552.988522,-8512.368333,842.705048
730.938037,-3404.947333,-8142.265362,1225.752797
730.938350,-4293.194464,-8290.306550,1149.143247
730.938662,-4145.153275,-8808.450710,766.095498
730.938975,-3997.112087,-8290.306550,689.485948
730.939288,-3923.091493,-8142.265362,1149.143247
730.939600,-3701.029710,-8512.368333,1378.971896
730.939913,-4219.173869,-8364.327145,1838.629195
730.940226,-4293.194464,-8364.327145,1838.629195
730.940538,-4145.153275,-8142.265362,1762.019645
730.940851,-3849.070898,-8512.368333,1302.362347
730.941164,-3478.967927,-8808.450710,1302.362347
730.941476,-3627.009116,-8660.409521,536.266849
730.941789,-4145.153275,-8512.368333,1608.800546
730.942102,-4293.194464,-8734.430116,1915.238745
730.942414,-3997.112087,-8882.471304,1838.629195
730.942727,-4293.194464,-8438.347739,1532.190996
730.943039,-4071.132681,-8734.430116,1838.629195
730.943352,-3701.029710,-8808.450710,1455.581446
730.943665,-4219.173869,-8438.347739,1378.971896
730.943977,-4293.194464,-8290.306550,1685.410096
730.944290,-4071.132681,-8586.388927,1915.238745
730.944603,-4071.132681,-8586.388927,1455.581446
730.944915,-4071.132681,-8660.409521,1072.533697
730.945228,-3923.091493,-8068.244768,1532.190996
730.945541,-3849.070898,-8290.306550,1685.410096
730.945853,-4367.215058,-8364.327145,2298.286494
730.946166,-3997.112087,-8512.368333,2298.286494
730.946479,-3997.112087,-8660.409521,1532.190996
730.946791,-3775.050304,-8956.491898,1532.190996
730.947104,-3849.070898,-8956.491898,1608.800546
730.947417,-3775.050304,-8808.450710,1838.629195
730.947729,-4145.153275,-8660.409521,2221.676944
730.948042,-4071.132681,-8808.450710,1685.410096
730.948354,-4145.153275,-8512.368333,1685.410096
730.948667,-3997.112087,-8512.368333,1838.629195
730.948980,-4293.194464,-8882.471304,1532.190996
730.949292,-4145.153275,-8586.388927,1378.971896
730.949605,-4441.235652,-8290.306550,1149.143247
730.949918,-4589.276840,-8438.347739,1302.362347
730.950230,-4367.215058,-8364.327145,1762.019645
730.950543,-3849.070898,-8068.244768,1532.190996
730.950856,-3997.112087,-8142.265362,1149.143247
730.951168,-3997.112087,-8438.347739,1455.581446
730.951481,-3997.112087,-8364.327145,1685.410096
730.951794,-3701.029710,-8512.368333,1455.581446
730.952106,-3627.009116,-8734.430116,1149.143247
730.952419,-3404.947333,-8734.430116,689.485948
730.952732,-3034.844362,-8438.347739,689.485948
730.953044,-3256.906145,-8512.368333,1072.533697
730.953357,-3478.967927,-8586.388927,1685.410096
730.953669,-2960.823768,-9104.533087,1455.581446
730.953982,-3182.885551,-9400.615463,1225.752797
730.954295,-3330.926739,-9178.553681,1149.143247
730.954607,-3108.864956,-9030.512492,995.924147
730.954920,-2812.782580,-8734.430116,842.705048
730.955233,-3478.967927,-8216.285956,766.095498
730.955545,-3478.967927,-8660.409521,612.876398
730.955858,-3256.906145,-9030.512492,689.485948
730.956171,-3404.947333,-8808.450710,229.828649
730.956483,-3627.009116,-8882.471304,459.657299
730.956796,-3923.091493,-8586.388927,766.095498
730.957109,-3775.050304,-8882.471304,689.485948
730.957421,-3627.009116,-8956.491898,536.266849
730.957734,-3849.070898,-8512.368333,689.485948
730.958047,-3997.112087,-8586.388927,153.219100
730.958359,-3775.050304,-8734.430116,766.095498
730.958672,-4145.153275,-8734.430116,383.047749
730.958984,-4367.215058,-8660.409521,383.047749
730.959297,-3849.070898,-8882.471304,459.657299
730.959610,-4145.153275,-8956.491898,459.657299
730.959922,-4219.173869,-8512.368333,383.047749
730.960235,-3627.009116,-9030.512492,766.095498
730.960548,-3997.112087,-9104.533087,766.095498
730.960860,-4145.153275,-8586.388927,842.705048
730.961173,-4367.215058,-8660.409521,995.924147
730.961486,-4219.173869,-8734.430116,766.095498
730.961798,-3923.091493,-8660.409521,536.266849
730.962111,-4071.132681,-8734.430116,306.438199
730.962424,-3923.091493,-8512.368333,536.266849
730.962736,-4219.173869,-8142.265362,842.705048
730.963049,-4145.153275,-8734.430116,1225.752797
730.963362,-4441.235652,-8734.430116,1072.533697
730.963674,-4441.235652,-8882.471304,1149.143247
730.963987,-4441.235652,-8956.491898,995.924147
730.964299,-4219.173869,-8512.368333,919.314598
730.964612,-4589.276840,-8364.327145,1378.971896
730.964925,-4219.173869,-8512.368333,1838.629195
730.965237,-3923.091493,-8586.388927,1455.581446
730.965550,-3849.070898,-8142.265362,1608.800546
730.965863,-4071.132681,-8660.409521,1532.190996
730.966175,-3627.009116,-8660.409521,1532.190996
730.966488,-3404.947333,-8882.471304,1532.190996
730.966801,-3701.029710,-8586.388927,1762.019645
730.967113,-3701.029710,-8438.347739,1378.971896
730.967426,-3182.885551,-9030.512492,1532.190996
730.967739,-3330.926739,-8586.388927,1225.752797
730.968051,-3404.947333,-8808.450710,1149.143247
730.968364,-3552.988522,-8956.491898,1991.848295
730.968677,-3701.029710,-8808.450710,1915.238745
730.968990,-3627.009116,-9030.512492,1915.238745
730.969302,-3849.070898,-8364.327145,1915.238745
730.969615,-3478.967927,-9178.553681,1762.019645
730.969928,-3701.029710,-8808.450710,1838.629195
730.970240,-3775.050304,-8586.388927,1838.629195
730.970553,-3849.070898,-8586.388927,1685.410096
730.970866,-3849.070898,-8290.306550,1685.410096
730.971178,-3775.050304,-8364.327145,1608.800546
730.971491,-3627.009116,-8438.347739,1532.190996
730.971804,-3627.009116,-8586.388927,1302.362347
730.972116,-3923.091493,-8512.368333,1455.581446
730.972429,-3997.112087,-8734.430116,1915.238745
730.972742,-3775.050304,-8660.409521,2068.457845
730.973054,-3923.091493,-8660.409521,1455.581446
730.973367,-3701.029710,-8660.409521,1532.190996
730.973680,-3997.112087,-8808.450710,1685.410096
730.973992,-3775.050304,-8808.450710,1455.581446
730.974305,-3404.947333,-8734.430116,995.924147
730.974618,-3775.050304,-8586.388927,1685.410096
730.974930,-4219.173869,-8808.450710,1685.410096
730.975243,-3923.091493,-8808.450710,919.314598
730.975556,-3330.926739,-8512.368333,766.095498
730.975868,-3849.070898,-8660.409521,919.314598
730.976181,-4071.132681,-8512.368333,1072.533697
730.976494,-3701.029710,-8808.450710,919.314598
730.976806,-3997.112087,-8734.430116,1149.143247
730.977119,-4293.194464,-8734.430116,1378.971896
730.977432,-4071.132681,-8586.388927,1378.971896
730.977744,-3478.967927,-8438.347739,612.876398
730.978057,-3923.091493,-8660.409521,766.095498
730.978370,-4219.173869,-8660.409521,689.485948
730.978683,-4145.153275,-9104.533087,612.876398
730.978995,-3997.112087,-9104.533087,459.657299
730.979308,-4219.173869,-8660.409521,842.705048
730.979621,-4367.215058,-8586.388927,1149.143247
730.979933,-4441.235652,-8882.471304,1685.410096
730.980246,-3849.070898,-9178.553681,536.266849
730.980559,-4293.194464,-8438.347739,536.266849
730.980871,-4071.132681,-8882.471304,536.266849
730.981184,-4145.153275,-8882.471304,229.828649
730.981497,-3923.091493,-8290.306550,383.047749
730.981809,-3701.029710,-8216.285956,842.705048
730.982122,-3849.070898,-8808.450710,1072.533697
730.982435,-3552.988522,-8734.430116,1149.143247
730.982747,-3256.906145,-9326.594869,229.828649
730.983060,-3256.906145,-9252.574275,919.314598
730.983373,-3330.926739,-9030.512492,842.705048
730.983685,-3330.926739,-9400.615463,842.705048
730.983998,-3330.926739,-9030.512492,612.876398
730.984311,-2886.803174,-9474.636058,919.314598
730.984623,-3478.967927,-9400.615463,919.314598
730.984936,-3701.029710,-9104.533087,1302.362347
730.985249,-3404.947333,-9030.512492,536.266849
730.985561,-3404.947333,-9178.553681,459.657299
730.985874,-3478.967927,-9326.594869,612.876398
730.986187,-3923.091493,-9030.512492,689.485948
730.986499,-4219.173869,-8586.388927,995.924147
730.986812,-3923.091493,-9326.594869,766.095498
730.987125,-3849.070898,-9178.553681,1532.190996
730.987437,-3849.070898,-8660.409521,1072.533697
730.987750,-3552.988522,-8364.327145,689.485948
730.988063,-3775.050304,-8660.409521,689.485948
730.988376,-3701.029710,-8586.388927,306.438199
730.988688,-3775.050304,-8734.430116,459.657299
730.989001,-3330.926739,-8660.409521,1302.362347
730.989314,-2960.823768,-8734.430116,1685.410096
730.989626,-3108.864956,-8808.450710,1532.190996
730.989939,-4145.153275,-8956.491898,2068.457845
730.990252,-3923.091493,-9252.574275,1915.238745
730.990564,-3256.906145,-9252.574275,995.924147
730.990877,-3627.009116,-8586.388927,612.876398
730.991190,-3923.091493,-8364.327145,1072.533697
730.991502,-4071.132681,-8512.368333,1838.629195
730.991815,-4219.173869,-8438.347739,1762.019645
730.992128,-3478.967927,-8142.265362,1532.190996
730.992440,-3923.091493,-8512.368333,1378.971896
730.992753,-3923.091493,-8808.450710,1225.752797
730.993066,-3552.988522,-8586.388927,766.095498
730.993378,-3627.009116,-8216.285956,919.314598
730.993691,-3997.112087,-8586.388927,1608.800546
730.994004,-3552.988522,-9252.574275,1685.410096
730.994316,-3701.029710,-8142.265362,1378.971896
730.994629,-3701.029710,-8216.285956,2068.457845
730.994942,-3997.112087,-9030.512492,2145.067394
730.995254,-3552.988522,-9400.615463,1762.019645
730.995567,-3182.885551,-8882.471304,842.705048
730.995880,-3923.091493,-8586.388927,1838.629195
730.996192,-4071.132681,-8586.388927,2221.676944
730.996505,-3404.947333,-9104.533087,2298.286494
730.996818,-3923.091493,-8364.327145,1302.362347
730.997131,-3923.091493,-8142.265362,1149.143247
730.997443,-4515.256246,-8512.368333,1072.533697
730.997756,-4737.318029,-8512.368333,1149.143247
730.998069,-4737.318029,-8364.327145,1532.190996
730.998381,-4737.318029,-8438.347739,1838.629195
730.998694,-4589.276840,-8290.306550,2298.286494
730.999007,-4589.276840,-8364.327145,2221.676944
730.999319,-4441.235652,-8364.327145,1762.019645
730.999632,-4885.359217,-8290.306550,1378.971896
730.999945,-5403.503377,-8364.327145,1149.143247
731.000257,-5033.400406,-8364.327145,995.924147
731.000570,-4663.297435,-8142.265362,919.314598
731.000883,-4441.235652,-8512.368333,1608.800546
731.001195,-4737.318029,-7994.224174,1302.362347
731.001508,-4367.215058,-8142.265362,1149.143247
731.001821,-4367.215058,-8586.388927,1149.143247
731.002133,-3923.091493,-8586.388927,1302.362347
731.002446,-3552.988522,-8660.409521,995.924147
731.002759,-3775.050304,-8808.450710,1378.971896
731.003071,-3478.967927,-8734.430116,1838.629195
731.003384,-3182.885551,-8734.430116,1838.629195
731.003697,-3849.070898,-8882.471304,1685.410096
731.004009,-3849.070898,-8882.471304,1915.238745
731.004322,-3923.091493,-8438.347739,1072.533697
731.004635,-3330.926739,-8734.430116,919.314598
731.004947,-3849.070898,-8882.471304,1149.143247
731.005260,-4071.132681,-8438.347739,1608.800546
731.005573,-3478.967927,-8512.368333,995.924147
731.005885,-3404.947333,-8734.430116,612.876398
731.006198,-3701.029710,-8660.409521,842.705048
731.006511,-3552.988522,-8734.430116,459.657299
731.006824,-3108.864956,-8808.450710,536.266849
731.007136,-3182.885551,-8808.450710,919.314598
731.007449,-3478.967927,-8956.491898,1225.752797
731.007762,-3478.967927,-9104.533087,1532.190996
731.008074,-3256.906145,-9104.533087,1762.019645
731.008387,-2886.803174,-9178.553681,1149.143247
731.008700,-3552.988522,-8808.450710,842.705048
731.009012,-3997.112087,-8956.491898,842.705048
731.009325,-3478.967927,-9178.553681,1072.533697
731.009638,-3701.029710,-9030.512492,919.314598
731.009950,-3849.070898,-9104.533087,612.876398
731.010263,-3849.070898,-8808.450710,536.266849
731.010576,-3997.112087,-8660.409521,536.266849
731.010888,-3701.029710,-8660.409521,689.485948
731.011201,-3701.029710,-8512.368333,383.047749
731.011514,-3997.112087,-8364.327145,1072.533697
731.011826,-3627.009116,-8438.347739,919.314598
731.012139,-3923.091493,-8882.471304,612.876398
731.012452,-3849.070898,-8808.450710,766.095498
731.012764,-3923.091493,-8734.430116,919.314598
731.013077,-4071.132681,-8512.368333,1455.581446
731.013390,-3404.947333,-8956.491898,1149.143247
731.013702,-3849.070898,-8734.430116,1532.190996
731.014015,-3701.029710,-8882.471304,995.924147
731.014328,-4219.173869,-8734.430116,1072.533697
731.014640,-3849.070898,-9030.512492,689.485948
731.014953,-3775.050304,-8734.430116,766.095498
731.015266,-3849.070898,-8438.347739,842.705048
731.015579,-3997.112087,-8290.306550,842.705048
731.015891,-3923.091493,-8364.327145,842.705048
731.016204,-3775.050304,-8438.347739,842.705048
731.016517,-4367.215058,-8290.306550,1149.143247
731.016829,-3923.091493,-8956.491898,1455.581446
731.017142,-4145.153275,-8734.430116,1302.362347
731.017455,-4145.153275,-8808.450710,1225.752797
731.017767,-4145.153275,-8808.450710,1072.533697
731.018080,-4219.173869,-8956.491898,1072.533697
731.018393,-4663.297435,-8216.285956,1072.533697
731.018705,-4219.173869,-8660.409521,1072.533697
731.019018,-4367.215058,-8290.306550,1378.971896
731.019331,-4367.215058,-8512.368333,919.314598
731.019643,-4367.215058,-8586.388927,995.924147
731.019956,-4441.235652,-8734.430116,1149.143247
731.020269,-4441.235652,-8586.388927,1149.143247
731.020581,-4219.173869,-8512.368333,1762.019645
731.020894,-3849.070898,-8290.306550,1378.971896
731.021207,-3997.112087,-8142.265362,1762.019645
731.021519,-3775.050304,-8216.285956,1149.143247
731.021832,-3849.070898,-8586.388927,1302.362347
731.022145,-3997.112087,-8808.450710,1455.581446
731.022457,-3775.050304,-8808.450710,1455.581446
731.022770,-3478.967927,-9030.512492,1532.190996
731.023083,-3627.009116,-8808.450710,2068.457845
731.023395,-3775.050304,-9030.512492,1762.019645
731.023708,-3478.967927,-8956.491898,1225.752797
731.024021,-2960.823768,-8956.491898,766.095498
731.024333,-3034.844362,-8734.430116,1225.752797
731.024646,-3478.967927,-9030.512492,1378.971896
731.024959,-3330.926739,-9252.574275,1838.629195
731.025272,-3330.926739,-9326.594869,1608.800546
731.025584,-3478.967927,-8364.327145,1532.190996
731.025897,-3552.988522,-8882.471304,1378.971896
731.026210,-3034.844362,-8808.450710,2145.067394
731.026522,-3923.091493,-8660.409521,1838.629195
731.026835,-4145.153275,-8438.347739,1225.752797
731.027148,-4145.153275,-8438.347739,919.314598
731.027460,-3849.070898,-8586.388927,1072.533697
731.027773,-3997.112087,-8290.306550,1302.362347
731.028086,-3775.050304,-8068.244768,1225.752797
731.028398,-3923.091493,-8142.265362,1685.410096
731.028711,-3701.029710,-8216.285956,1685.410096
731.029024,-3627.009116,-8216.285956,1685.410096
731.029336,-3478.967927,-8290.306550,1302.362347
731.029649,-3627.009116,-8290.306550,1072.533697
731.029962,-3775.050304,-8216.285956,1149.143247
731.030274,-3997.112087,-8734.430116,995.924147
731.030587,-3552.988522,-8882.471304,1149.143247
731.030900,-3330.926739,-8586.388927,1225.752797
731.031212,-3108.864956,-9104.533087,1608.800546
731.031525,-3627.009116,-8808.450710,1378.971896
731.031838,-3849.070898,-8956.491898,1225.752797
731.032150,-3330.926739,-9030.512492,919.314598
731.032463,-3552.988522,-8734.430116,383.047749
731.032776,-3701.029710,-8586.388927,459.657299
731.033088,-2590.720797,-9104.533087,153.219100
731.033401,-2590.720797,-8660.409521,-383.047749
731.033714,-2886.803174,-8512.368333,-383.047749
731.034026,-2960.823768,-8808.450710,0.000000
731.034339,-2442.679609,-9178.553681,0.000000
731.034652,-2146.597232,-9622.677246,-383.047749
731.034965,-2368.659014,-9326.594869,0.000000
731.035277,-2368.659014,-8882.471304,766.095498
731.035590,-2590.720797,-9474.636058,689.485948
731.035903,-3034.844362,-9770.718434,306.438199
731.036215,-3330.926739,-9474.636058,306.438199
731.036528,-2960.823768,-9844.739029,-459.657299
731.036841,-3478.967927,-9548.656652,-229.828649
731.037153,-3849.070898,-9622.677246,76.609550
731.037466,-4071.132681,-9104.533087,0.000000
731.037779,-3849.070898,-9104.533087,-306.438199
731.038091,-3923.091493,-8956.491898,-689.485948
731.038404,-4293.194464,-8438.347739,-919.314598
731.038717,-3478.967927,-8364.327145,-995.924147
731.039029,-3775.050304,-8660.409521,-766.095498
731.039342,-3701.029710,-8512.368333,-383.047749
731.039655,-3404.947333,-8808.450710,-229.828649
731.039967,-3404.947333,-9326.594869,536.266849
731.040280,-3404.947333,-9474.636058,229.828649
731.040593,-3478.967927,-9622.677246,153.219100
731.040905,-3034.844362,-9474.636058,612.876398
731.041218,-3478.967927,-9548.656652,306.438199
731.041531,-3404.947333,-9622.677246,153.219100
731.041843,-3701.029710,-9622.677246,229.828649
731.042156,-3923.091493,-9400.615463,153.219100
731.042469,-3997.112087,-9252.574275,153.219100
731.042781,-3849.070898,-8660.409521,766.095498
731.043094,-3552.988522,-8808.450710,229.828649
731.043407,-3627.009116,-8586.388927,153.219100
731.043720,-3330.926739,-8660.409521,383.047749
731.044032,-3256.906145,-8512.368333,0.000000
731.044345,-3330.926739,-8438.347739,306.438199
731.044658,-3034.844362,-8216.285956,459.657299
731.044970,-3034.844362,-8734.430116,766.095498
731.045283,-3034.844362,-8512.368333,536.266849
731.045596,-3627.009116,-8956.491898,995.924147
731.045908,-3034.844362,-8956.491898,1225.752797
731.046221,-2960.823768,-9178.553681,1149.143247
731.046534,-3330.926739,-9178.553681,1455.581446
731.046846,-3552.988522,-9030.512492,1455.581446
731.047159,-3404.947333,-9178.553681,1149.143247
731.047472,-3256.906145,-8882.471304,842.705048
731.047784,-3478.967927,-8734.430116,1225.752797
731.048097,-2960.823768,-8290.306550,919.314598
731.048410,-3182.885551,-8142.265362,995.924147
731.048722,-3256.906145,-8364.327145,1225.752797
731.049035,-3330.926739,-8586.388927,1149.143247
731.049348,-3182.885551,-8512.368333,1455.581446
731.049660,-3330.926739,-8512.368333,1302.362347
731.049973,-2664.741391,-8882.471304,1302.362347
731.050286,-2812.782580,-8512.368333,1915.238745
731.050598,-2960.823768,-8290.306550,1378.971896
731.050911,-3404.947333,-8808.450710,1225.752797
731.051224,-3034.844362,-8956.491898,1532.190996
731.051536,-2886.803174,-9104.533087,1302.362347
731.051849,-3108.864956,-9252.574275,1378.971896
731.052162,-2442.679609,-9474.636058,1302.362347
731.052474,-2738.761985,-9326.594869,1455.581446
731.052787,-3330.926739,-9252.574275,842.705048
731.053100,-3182.885551,-8808.450710,1685.410096
731.053413,-3404.947333,-9030.512492,842.705048
731.053725,-3256.906145,-8956.491898,612.876398
731.054038,-3034.844362,-8660.409521,536.266849
731.054351,-3108.864956,-8808.450710,612.876398
731.054663,-2812.782580,-8660.409521,1225.752797
731.054976,-3256.906145,-8734.430116,1149.143247
731.055289,-2886.803174,-9252.574275,612.876398
731.055601,-3182.885551,-8660.409521,766.095498
731.055914,-3108.864956,-9178.553681,612.876398
731.056227,-3256.906145,-9178.553681,459.657299
731.056539,-3404.947333,-9104.533087,536.266849
731.056852,-3627.009116,-9252.574275,459.657299
731.057165,-3330.926739,-8734.430116,689.485948
731.057477,-3478.967927,-8882.471304,229.828649
731.057790,-3552.988522,-8734.430116,76.609550
731.058103,-3256.906145,-9252.574275,-153.219100
731.058415,-3552.988522,-8882.471304,0.000000
731.058728,-3701.029710,-9104.533087,229.828649
731.059041,-3552.988522,-9030.512492,459.657299
731.059353,-3478.967927,-8882.471304,306.438199
731.059666,-3256.906145,-8660.409521,0.000000
731.059979,-3701.029710,-8956.491898,612.876398
731.060291,-3330.926739,-9400.615463,229.828649
731.060604,-3701.029710,-8734.430116,153.219100
731.060917,-3330.926739,-8956.491898,0.000000
731.061229,-3552.988522,-9178.553681,306.438199
731.061542,-3701.029710,-8734.430116,0.000000
731.061855,-3552.988522,-9178.553681,0.000000
731.062167,-3478.967927,-9030.512492,0.000000
731.062480,-3849.070898,-8956.491898,229.828649
731.062793,-3478.967927,-8660.409521,153.219100
731.063106,-3330.926739,-8882.471304,0.000000
731.063418,-3478.967927,-8808.450710,-306.438199
731.063731,-3404.947333,-8956.491898,0.000000
731.064044,-3552.988522,-9252.574275,306.438199
731.064356,-3404.947333,-9252.574275,459.657299
731.064669,-3775.050304,-8882.471304,383.047749
731.064982,-3256.906145,-9548.656652,0.000000
731.065294,-2664.741391,-9104.533087,0.000000
731.065607,-2738.761985,-8956.491898,0.000000
731.065920,-3330.926739,-9104.533087,459.657299
731.066232,-3182.885551,-9030.512492,689.485948
731.066545,-2664.741391,-9252.574275,306.438199
731.066858,-3256.906145,-8586.388927,306.438199
731.067170,-3701.029710,-8438.347739,689.485948
731.067483,-3034.844362,-9326.594869,1072.533697
731.067796,-3256.906145,-8142.265362,76.609550
731.068108,-3478.967927,-8512.368333,306.438199
731.068421,-3404.947333,-9030.512492,842.705048
731.068734,-3330.926739,-9030.512492,459.657299
731.069046,-3701.029710,-8956.491898,919.314598
731.069359,-4071.132681,-8956.491898,1225.752797
731.069672,-3108.864956,-8956.491898,689.485948
731.069984,-2812.782580,-9104.533087,1302.362347
731.070297,-2960.823768,-8660.409521,1378.971896
731.070610,-3478.967927,-8290.306550,1149.143247
731.070922,-3108.864956,-8586.388927,842.705048
731.071235,-3182.885551,-8586.388927,536.266849
731.071548,-3330.926739,-8808.450710,842.705048
731.071860,-3552.988522,-8956.491898,1455.581446
731.072173,-3256.906145,-9104.533087,1915.238745
731.072486,-3552.988522,-9104.533087,2068.457845
731.072798,-3330.926739,-8734.430116,2068.457845
731.073111,-3775.050304,-8660.409521,1455.581446
731.073424,-3775.050304,-8882.471304,995.924147
731.073736,-3701.029710,-8660.409521,383.047749
731.074049,-3478.967927,-8364.327145,76.609550
731.074362,-3775.050304,-8438.347739,612.876398
731.074674,-3256.906145,-8364.327145,1149.143247
731.074987,-3182.885551,-8364.327145,1225.752797
731.075300,-3256.906145,-8734.430116,1915.238745
731.075612,-3701.029710,-9252.574275,766.095498
731.075925,-3552.988522,-8956.491898,612.876398
731.076238,-3330.926739,-8882.471304,842.705048
731.076550,-3256.906145,-8808.450710,766.095498
731.076863,-3256.906145,-8808.450710,689.485948
731.077176,-3923.091493,-8956.491898,995.924147
731.077489,-3775.050304,-8660.409521,766.095498
731.077801,-3849.070898,-9252.574275,383.047749
731.078114,-3775.050304,-9252.574275,306.438199
731.078427,-4071.132681,-9474.636058,1225.752797
731.078739,-4145.153275,-9030.512492,1149.143247
731.079052,-3701.029710,-8660.409521,689.485948
731.079365,-3404.947333,-8142.265362,612.876398
731.079677,-3775.050304,-8142.265362,383.047749
731.079990,-3478.967927,-8512.368333,153.219100
731.080303,-3627.009116,-8586.388927,0.000000
731.080615,-3552.988522,-8660.409521,612.876398
731.080928,-3108.864956,-8586.388927,1149.143247
731.081241,-2960.823768,-8808.450710,1378.971896
731.081553,-3330.926739,-9104.533087,1302.362347
731.081866,-3849.070898,-8882.471304,919.314598
731.082179,-3552.988522,-9178.553681,612.876398
731.082491,-3108.864956,-8734.430116,229.828649
731.082804,-3404.947333,-9104.533087,536.266849
731.083117,-3997.112087,-9104.533087,766.095498
731.083429,-3775.050304,-9252.574275,995.924147
731.083742,-3404.947333,-9104.533087,612.876398
731.084055,-3627.009116,-8660.409521,383.047749
731.084367,-3775.050304,-9030.512492,766.095498
731.084680,-3256.906145,-8438.347739,689.485948
731.084993,-3256.906145,-7846.182985,153.219100
731.085305,-3108.864956,-8216.285956,766.095498
731.085618,-3256.906145,-9030.512492,842.705048
731.085931,-3034.844362,-8882.471304,229.828649
731.086243,-3108.864956,-8512.368333,0.000000
731.086556,-3552.988522,-8882.471304,689.485948
731.086869,-3552.988522,-9474.636058,842.705048
731.087181,-2664.741391,-9252.574275,995.924147
731.087494,-2738.761985,-9104.533087,1149.143247
731.087807,-3701.029710,-9178.553681,1072.533697
731.088119,-3478.967927,-9474.636058,306.438199
731.088432,-3552.988522,-9178.553681,-306.438199
731.088745,-3923.091493,-8734.430116,-383.047749
731.089057,-3404.947333,-8734.430116,-306.438199
731.089370,-3034.844362,-8956.491898,-229.828649
731.089683,-2738.761985,-9178.553681,536.266849
731.089995,-2664.741391,-8660.409521,153.219100
731.090308,-2664.741391,-9104.533087,76.609550
731.090621,-2664.741391,-8956.491898,383.047749
731.090933,-2516.700203,-8956.491898,0.000000
731.091246,-2516.700203,-8882.471304,229.828649
731.091559,-2368.659014,-9252.574275,536.266849
731.091871,-2220.617826,-9770.718434,229.828649
731.092184,-2516.700203,-9252.574275,76.609550
731.092497,-2294.638420,-9622.677246,842.705048
731.092809,-2368.659014,-9918.759623,536.266849
731.093122,-2664.741391,-9622.677246,153.219100
731.093435,-2886.803174,-9844.739029,383.047749
731.093747,-2812.782580,-9474.636058,153.219100
731.094060,-2886.803174,-9030.512492,459.657299
731.094373,-3182.885551,-9474.636058,229.828649
731.094686,-3478.967927,-9326.594869,0.000000
731.094998,-3552.988522,-8882.471304,229.828649
731.095311,-3849.070898,-8734.430116,0.000000
731.095624,-4071.132681,-8734.430116,383.047749
731.095936,-3701.029710,-8660.409521,536.266849
731.096249,-3404.947333,-8660.409521,153.219100
731.096562,-3182.885551,-8734.430116,689.485948
731.096874,-4071.132681,-8660.409521,1455.581446
731.097187,-3552.988522,-8438.347739,536.266849
731.097500,-3256.906145,-8586.388927,383.047749
731.097812,-3627.009116,-9030.512492,306.438199
731.098125,-3701.029710,-8586.388927,612.876398
731.098438,-3478.967927,-9104.533087,536.266849
731.098750,-3330.926739,-8734.430116,842.705048
731.099063,-3478.967927,-8882.471304,995.924147
731.099376,-3404.947333,-8734.430116,612.876398
731.099688,-3404.947333,-9104.533087,1149.143247
731.100001,-3330.926739,-8882.471304,612.876398
731.100314,-3330.926739,-8956.491898,689.485948
731.100626,-3552.988522,-8882.471304,919.314598
731.100939,-3404.947333,-8956.491898,766.095498
731.101252,-2960.823768,-8512.368333,536.266849
731.101564,-3330.926739,-8660.409521,1072.533697
731.101877,-3997.112087,-8734.430116,536.266849
731.102190,-3108.864956,-8808.450710,1532.190996
731.102502,-3330.926739,-8882.471304,1072.533697
731.102815,-3627.009116,-8882.471304,995.924147
731.103128,-3627.009116,-8956.491898,842.705048
731.103440,-3404.947333,-8660.409521,612.876398
731.103753,-3552.988522,-8660.409521,229.828649
731.104066,-3182.885551,-9104.533087,612.876398
731.104378,-3701.029710,-8586.388927,1149.143247
731.104691,-3627.009116,-8808.450710,1225.752797
731.105004,-3701.029710,-9104.533087,1072.533697
731.105316,-3256.906145,-9178.553681,766.095498
731.105629,-3404.947333,-8956.491898,842.705048
731.105942,-3478.967927,-9178.553681,919.314598
731.106254,-3627.009116,-8808.450710,612.876398
731.106567,-3034.844362,-9030.512492,612.876398
731.106880,-2664.741391,-9326.594869,995.924147
731.107192,-3404.947333,-8882.471304,766.095498
731.107505,-3478.967927,-9030.512492,766.095498
731.107818,-3182.885551,-9030.512492,766.095498
731.108130,-3108.864956,-9030.512492,766.095498
731.108443,-3256.906145,-8956.491898,1072.533697
731.108756,-3034.844362,-8364.327145,919.314598
731.109068,-3330.926739,-8808.450710,689.485948
731.109381,-2960.823768,-9252.574275,1225.752797
731.109694,-2886.803174,-8882.471304,383.047749
731.110006,-2812.782580,-8882.471304,306.438199
731.110319,-2960.823768,-9104.533087,536.266849
731.110632,-2812.782580,-9326.594869,612.876398
731.110944,-2590.720797,-9400.615463,612.876398
731.111257,-2664.741391,-9400.615463,689.485948
731.111570,-2664.741391,-9104.533087,536.266849
731.111882,-2960.823768,-8956.491898,536.266849
731.112195,-3108.864956,-9030.512492,536.266849
731.112508,-3108.864956,-9104.533087,383.047749
731.112821,-3182.885551,-9104.533087,76.609550
731.113133,-3552.988522,-8734.430116,229.828649
731.113446,-3627.009116,-8882.471304,153.219100
731.113759,-4145.153275,-8808.450710,842.705048
731.114071,-3552.988522,-8660.409521,1302.362347
731.114384,-3997.112087,-9030.512492,76.609550
731.114697,-4293.194464,-8882.471304,766.095498
731.115009,-4219.173869,-8808.450710,536.266849
731.115322,-4145.153275,-8808.450710,229.828649
731.115635,-4219.173869,-8216.285956,76.609550
731.115947,-3775.050304,-8734.430116,229.828649
731.116260,-3997.112087,-8142.265362,76.609550
731.116573,-4219.173869,-8512.368333,383.047749
731.116885,-4071.132681,-8586.388927,689.485948
731.117198,-3627.009116,-8808.450710,689.485948
731.117511,-3775.050304,-8956.491898,766.095498
731.117823,-3627.009116,-9030.512492,536.266849
731.118136,-3552.988522,-8216.285956,689.485948
731.118449,-3478.967927,-8660.409521,383.047749
731.118761,-3627.009116,-8956.491898,689.485948
731.119074,-2960.823768,-8808.450710,689.485948
731.119387,-2960.823768,-9326.594869,459.657299
731.119699,-3034.844362,-9326.594869,383.047749
731.120012,-3256.906145,-9326.594869,689.485948
731.120325,-3256.906145,-9104.533087,1149.143247
731.120637,-3330.926739,-9178.553681,1149.143247
731.120950,-3552.988522,-9104.533087,1225.752797
731.121263,-3256.906145,-9178.553681,689.485948
731.121575,-2886.803174,-8882.471304,536.266849
731.121888,-3552.988522,-8734.430116,536.266849
731.122201,-3627.009116,-8586.388927,383.047749
731.122513,-3701.029710,-8882.471304,689.485948
731.122826,-4071.132681,-9030.512492,459.657299
731.123139,-4071.132681,-8882.471304,919.314598
731.123451,-3552.988522,-8216.285956,1149.143247
731.123764,-3997.112087,-8512.368333,1225.752797
731.124077,-3997.112087,-8290.306550,1532.190996
731.124389,-4293.194464,-8586.388927,1838.629195
731.124702,-4441.235652,-8512.368333,1225.752797
731.125015,-4293.194464,-8512.368333,919.314598
731.125327,-3775.050304,-8216.285956,842.705048
731.125640,-3775.050304,-7846.182985,1532.190996
731.125953,-4145.153275,-8290.306550,1378.971896
731.126265,-3849.070898,-8364.327145,2221.676944
731.126578,-3775.050304,-8512.368333,1302.362347
731.126891,-3701.029710,-8586.388927,1302.362347
731.127203,-3701.029710,-8660.409521,1378.971896
731.127516,-3478.967927,-8808.450710,1608.800546
731.127829,-3404.947333,-8660.409521,1915.238745
731.128141,-3997.112087,-8734.430116,1915.238745
731.128454,-3701.029710,-8808.450710,2374.896044
731.128767,-3849.070898,-9030.512492,2068.457845
731.129079,-4071.132681,-8734.430116,1532.190996
731.129392,-4219.173869,-8660.409521,1378.971896
731.129705,-4145.153275,-8586.388927,1149.143247
731.130017,-4441.235652,-8512.368333,1608.800546
731.130330,-4441.235652,-8216.285956,1685.410096
731.130643,-4219.173869,-7772.162391,383.047749
731.130956,-3997.112087,-8216.285956,1149.143247
731.131268,-3923.091493,-8734.430116,1608.800546
731.131581,-3923.091493,-8438.347739,1685.410096
731.131894,-4145.153275,-8364.327145,2068.457845
731.132206,-4071.132681,-8660.409521,2451.505594
731.132519,-4145.153275,-8808.450710,2298.286494
731.132832,-4071.132681,-8808.450710,2451.505594
731.133144,-4145.153275,-8586.388927,1149.143247
731.133457,-3997.112087,-8438.347739,1838.629195
731.133770,-4589.276840,-8586.388927,1838.629195
731.134082,-4589.276840,-8586.388927,1608.800546
731.134395,-4441.235652,-8808.450710,1455.581446
731.134708,-4145.153275,-8512.368333,1378.971896
731.135020,-3997.112087,-8364.327145,1149.143247
731.135333,-3923.091493,-8068.244768,1991.848295
731.135646,-3478.967927,-8364.327145,1532.190996
731.135958,-3256.906145,-8586.388927,1532.190996
731.136271,-3552.988522,-8438.347739,1455.581446
731.136584,-3256.906145,-8660.409521,1378.971896
731.136896,-3034.844362,-8586.388927,1225.752797
731.137209,-3108.864956,-8734.430116,1225.752797
731.137522,-3182.885551,-9030.512492,1302.362347
731.137834,-2886.803174,-8734.430116,1149.143247
731.138147,-3182.885551,-8734.430116,1302.362347
731.138460,-3404.947333,-8660.409521,1149.143247
731.138772,-3404.947333,-9178.553681,919.314598
731.139085,-3404.947333,-9030.512492,689.485948
731.139398,-3627.009116,-8956.491898,995.924147
731.139710,-3552.988522,-8882.471304,1072.533697
731.140023,-3627.009116,-8438.347739,766.095498
731.140336,-3701.029710,-8364.327145,459.657299
731.140648,-3404.947333,-8734.430116,842.705048
731.140961,-3849.070898,-8512.368333,383.047749
731.141274,-3775.050304,-8734.430116,689.485948
731.141586,-4071.132681,-8734.430116,612.876398
731.141899,-4071.132681,-8808.450710,536.266849
731.142212,-3775.050304,-8734.430116,0.000000
731.142524,-3701.029710,-8882.471304,306.438199
731.142837,-3701.029710,-8586.388927,459.657299
731.143150,-3923.091493,-8586.388927,612.876398
731.143462,-3923.091493,-8882.471304,306.438199
731.143775,-4219.173869,-8956.491898,459.657299
731.144088,-3997.112087,-9104.533087,383.047749
731.144400,-4071.132681,-8956.491898,153.219100
731.144713,-4737.318029,-8956.491898,1225.752797
731.145026,-4367.215058,-8882.471304,1072.533697
731.145338,-4589.276840,-8882.471304,536.266849
731.145651,-4663.297435,-8660.409521,1149.143247
731.145964,-4293.194464,-8586.388927,306.438199
731.146276,-4145.153275,-8660.409521,383.047749
731.146589,-4441.235652,-8586.388927,612.876398
731.146902,-4515.256246,-8586.388927,842.705048
731.147214,-4367.215058,-8808.450710,842.705048
731.147527,-4219.173869,-9030.512492,919.314598
731.147840,-4145.153275,-8290.306550,919.314598
731.148153,-4367.215058,-8364.327145,1072.533697
731.148465,-4219.173869,-8364.327145,842.705048
731.148778,-4145.153275,-8956.491898,1225.752797
731.149091,-4071.132681,-8734.430116,1225.752797
731.149403,-3923.091493,-8660.409521,1455.581446
731.149716,-3923.091493,-8512.368333,1149.143247
731.150029,-4219.173869,-8512.368333,1225.752797
731.150341,-3997.112087,-8438.347739,1455.581446
731.150654,-3923.091493,-8660.409521,1685.410096
731.150967,-3849.070898,-8808.450710,1762.019645
731.151279,-3923.091493,-8438.347739,1762.019645
731.151592,-3701.029710,-8660.409521,1762.019645
731.151905,-3552.988522,-8734.430116,1532.190996
731.152217,-3627.009116,-8660.409521,2068.457845
731.152530,-3478.967927,-8734.430116,1991.848295
731.152843,-3256.906145,-8660.409521,1302.362347
731.153155,-3701.029710,-8660.409521,1608.800546
731.153468,-3108.864956,-8882.471304,1838.629195
731.153781,-3182.885551,-8512.368333,1762.019645
731.154093,-3552.988522,-8512.368333,1838.629195
731.154406,-3552.988522,-8586.388927,1838.629195
731.154719,-3552.988522,-8142.265362,1302.362347
731.155031,-3627.009116,-8734.430116,1608.800546
731.155344,-3923.091493,-8290.306550,1608.800546
731.155657,-3478.967927,-8660.409521,1838.629195
731.155969,-3627.009116,-8586.388927,1455.581446
731.156282,-3849.070898,-8512.368333,1608.800546
731.156595,-4145.153275,-8808.450710,1915.238745
731.156907,-3478.967927,-8734.430116,1608.800546
731.157220,-3034.844362,-8882.471304,1532.190996
731.157533,-3627.009116,-8290.306550,1455.581446
731.157845,-4219.173869,-8808.450710,2221.676944
731.158158,-3775.050304,-9030.512492,2145.067394
731.158471,-3627.009116,-8660.409521,1608.800546
731.158783,-3775.050304,-8512.368333,1685.410096
731.159096,-3923.091493,-8808.450710,1378.971896
731.159409,-3627.009116,-8734.430116,612.876398
731.159721,-4441.235652,-8364.327145,536.266849
731.160034,-4663.297435,-8364.327145,1378.971896
731.160347,-3849.070898,-8808.450710,1685.410096
731.160659,-3701.029710,-9178.553681,1455.581446
731.160972,-3997.112087,-8586.388927,1149.143247
731.161285,-3923.091493,-8438.347739,689.485948
731.161597,-3923.091493,-8808.450710,306.438199
731.161910,-4219.173869,-8882.471304,229.828649
731.162223,-4071.132681,-8808.450710,229.828649
731.162535,-4367.215058,-8734.430116,1225.752797
731.162848,-4145.153275,-8660.409521,1225.752797
731.163161,-3923.091493,-9030.512492,1378.971896
731.163473,-4367.215058,-8660.409521,919.314598
731.163786,-4367.215058,-8882.471304,536.266849
731.164099,-4219.173869,-9178.553681,153.219100
731.164411,-3627.009116,-8290.306550,0.000000
731.164724,-3552.988522,-8660.409521,0.000000
731.165037,-3849.070898,-8660.409521,766.095498
731.165349,-3849.070898,-8734.430116,383.047749
731.165662,-3775.050304,-8808.450710,612.876398
731.165975,-3701.029710,-9104.533087,612.876398
731.166288,-3404.947333,-9104.533087,229.828649
731.166600,-3478.967927,-9104.533087,459.657299
731.166913,-3330.926739,-8956.491898,1149.143247
731.167226,-3552.988522,-8734.430116,1072.533697
731.167538,-3182.885551,-9252.574275,1072.533697
731.167851,-3627.009116,-9252.574275,1072.533697
731.168164,-4071.132681,-9104.533087,919.314598
731.168476,-3627.009116,-9400.615463,766.095498
731.168789,-3478.967927,-9326.594869,842.705048
731.169102,-3404.947333,-9030.512492,1072.533697
731.169417,-3552.988522,-8364.327145,995.924147
731.169730,-3182.885551,-8512.368333,919.314598
731.170043,-3552.988522,-8808.450710,1072.533697
731.170355,-3775.050304,-8512.368333,766.095498
731.170668,-3404.947333,-8734.430116,689.485948
731.170981,-3404.947333,-9030.512492,919.314598
731.171293,-3330.926739,-8956.491898,1455.581446
731.171606,-3404.947333,-8660.409521,1378.971896
731.171919,-3849.070898,-8586.388927,2145.067394
731.172231,-3701.029710,-9474.636058,1455.581446
731.172544,-3330.926739,-8882.471304,1149.143247
731.172857,-3701.029710,-8364.327145,919.314598
731.173169,-4071.132681,-8734.430116,1225.752797
731.173482,-4071.132681,-8882.471304,1685.410096
731.173795,-3701.029710,-8586.388927,1532.190996
731.174107,-3923.091493,-7920.203579,1072.533697
731.174420,-4293.194464,-8290.306550,1149.143247
731.174733,-4515.256246,-9030.512492,1685.410096
731.175045,-3701.029710,-8660.409521,1225.752797
731.175358,-4071.132681,-7846.182985,1072.533697
731.175671,-4515.256246,-8142.265362,1915.238745
731.175983,-3923.091493,-8660.409521,2068.457845
731.176296,-3330.926739,-8586.388927,1302.362347
731.176609,-3330.926739,-8290.306550,1378.971896
731.176921,-4071.132681,-8586.388927,1072.533697
731.177234,-4441.235652,-8660.409521,1915.238745
731.177547,-3627.009116,-8290.306550,1455.581446
731.177859,-3775.050304,-8290.306550,1915.238745
731.178172,-4441.235652,-8660.409521,2145.067394
731.178485,-3923.091493,-8882.471304,1762.019645
731.178797,-4145.153275,-8438.347739,1149.143247
731.179110,-3849.070898,-8660.409521,1072.533697
731.179423,-4293.194464,-8364.327145,1455.581446
731.179735,-4293.194464,-8364.327145,1608.800546
731.180048,-4515.256246,-7920.203579,1838.629195
731.180361,-4589.276840,-8290.306550,2068.457845
731.180673,-4737.318029,-8586.388927,1762.019645
731.180986,-4811.338623,-8438.347739,1532.190996
731.181299,-4515.256246,-8512.368333,1225.752797
731.181611,-4441.235652,-8216.285956,919.314598
731.181924,-5255.462188,-8290.306550,1762.019645
731.182237,-5107.421000,-8068.244768,1455.581446
731.182549,-5033.400406,-7920.203579,1149.143247
731.182862,-4737.318029,-8438.347739,1149.143247
731.183175,-4885.359217,-8586.388927,1149.143247
731.183487,-4737.318029,-8142.265362,1149.143247
731.183800,-4219.173869,-8512.368333,1455.581446
731.184113,-3701.029710,-8512.368333,1532.190996
731.184425,-3849.070898,-8512.368333,1685.410096
731.184738,-3849.070898,-8660.409521,1378.971896
731.185051,-3552.988522,-8586.388927,1302.362347
731.185363,-3256.906145,-9104.533087,919.314598
731.185676,-3404.947333,-9104.533087,1072.533697
731.185989,-3478.967927,-9104.533087,1302.362347
731.186301,-3034.844362,-8956.491898,1762.019645
731.186614,-3182.885551,-8882.471304,1455.581446
731.186927,-3404.947333,-9178.553681,1302.362347
731.187239,-3627.009116,-8882.471304,1302.362347
731.187552,-3256.906145,-8956.491898,1608.800546
731.187865,-3256.906145,-8956.491898,766.095498
731.188177,-3701.029710,-9104.533087,1072.533697
731.188490,-3849.070898,-8586.388927,1149.143247
731.188803,-3552.988522,-8808.450710,766.095498
731.189115,-3849.070898,-8808.450710,842.705048
731.189428,-3923.091493,-8586.388927,919.314598
731.189741,-3923.091493,-8660.409521,766.095498
731.190053,-3256.906145,-8586.388927,842.705048
731.190366,-3627.009116,-8438.347739,1225.752797
731.190679,-3404.947333,-8882.471304,1072.533697
731.190991,-3552.988522,-8882.471304,995.924147
731.191304,-3552.988522,-9178.553681,1072.533697
731.191617,-3552.988522,-8956.491898,1302.362347
731.191929,-3552.988522,-8956.491898,1225.752797
731.192242,-3627.009116,-8734.430116,1302.362347
731.192555,-3923.091493,-8808.450710,1608.800546
731.192867,-4071.132681,-8956.491898,1149.143247
731.193180,-4145.153275,-8882.471304,766.095498
731.193493,-4441.235652,-8438.347739,689.485948
731.193805,-4219.173869,-8734.430116,612.876398
731.194118,-4145.153275,-8512.368333,459.657299
731.194431,-4219.173869,-8808.450710,612.876398
731.194743,-4145.153275,-8216.285956,689.485948
731.195056,-4293.194464,-8364.327145,842.705048
731.195369,-3701.029710,-8586.388927,842.705048
731.195681,-3701.029710,-8586.388927,612.876398
731.195994,-3552.988522,-8734.430116,536.266849
731.196307,-3627.009116,-8956.491898,1302.362347
731.196619,-3701.029710,-8956.491898,1225.752797
731.196932,-3256.906145,-9030.512492,1225.752797
731.197245,-3182.885551,-9030.512492,1302.362347
731.197557,-3997.112087,-9104.533087,1302.362347
731.197870,-3849.070898,-9030.512492,1302.362347
731.198183,-3849.070898,-8808.450710,919.314598
731.198495,-3849.070898,-9104.533087,612.876398
731.198808,-4145.153275,-8512.368333,766.095498
731.199121,-4293.194464,-8586.388927,842.705048
731.199433,-3849.070898,-8364.327145,1149.143247
731.199746,-4367.215058,-8438.347739,1149.143247
731.200059,-4219.173869,-8586.388927,766.095498
731.200371,-4071.132681,-8438.347739,1302.362347
731.200684,-4367.215058,-8512.368333,1149.143247
731.200997,-4515.256246,-8512.368333,1149.143247
731.201309,-4441.235652,-8438.347739,1608.800546
731.201622,-4515.256246,-8586.388927,1532.190996
731.201935,-4515.256246,-8216.285956,1225.752797
731.202247,-4441.235652,-8364.327145,1149.143247
731.202560,-4441.235652,-8660.409521,1149.143247
731.202873,-4367.215058,-8734.430116,1072.533697
731.203185,-4367.215058,-8734.430116,1225.752797
731.203498,-3997.112087,-8734.430116,1072.533697
731.203811,-3478.967927,-8660.409521,842.705048
731.204123,-3478.967927,-8068.244768,919.314598
731.204436,-2812.782580,-8290.306550,1225.752797
731.204749,-2738.761985,-8808.450710,1225.752797
731.205061,-3108.864956,-8734.430116,1072.533697
731.205374,-2960.823768,-9252.574275,1225.752797
731.205687,-2886.803174,-9252.574275,1532.190996
731.205999,-2960.823768,-9400.615463,2068.457845
731.206312,-3108.864956,-9104.533087,2604.724693
731.206625,-3478.967927,-9104.533087,2451.505594
731.206937,-3404.947333,-9400.615463,2221.676944
731.207250,-3478.967927,-9178.553681,1685.410096
731.207563,-3701.029710,-8808.450710,1072.533697
731.207875,-3997.112087,-8438.347739,1072.533697
731.208188,-4293.194464,-8216.285956,1302.362347
731.208501,-4293.194464,-7994.224174,1915.238745
731.208813,-4145.153275,-8512.368333,919.314598
731.209126,-4589.276840,-8438.347739,459.657299
731.209439,-4441.235652,-7772.162391,1225.752797
731.209751,-3627.009116,-8364.327145,995.924147
731.210064,-3849.070898,-8364.327145,1302.362347
731.210377,-4071.132681,-8290.306550,1685.410096
731.210689,-3923.091493,-8364.327145,1455.581446
731.211002,-3849.070898,-8438.347739,1532.190996
731.211315,-3478.967927,-8660.409521,1378.971896
731.211627,-3552.988522,-8660.409521,1149.143247
731.211940,-3404.947333,-8882.471304,1149.143247
731.212253,-3627.009116,-9030.512492,1455.581446
731.212565,-3404.947333,-8808.450710,1455.581446
731.212878,-3108.864956,-9030.512492,1302.362347
731.213191,-3108.864956,-8734.430116,689.485948
731.213503,-3182.885551,-8660.409521,383.047749
731.213816,-3256.906145,-8808.450710,459.657299
731.214129,-2368.659014,-8956.491898,229.828649
731.214441,-2516.700203,-8660.409521,229.828649
731.214754,-2738.761985,-8882.471304,229.828649
731.215067,-3108.864956,-8956.491898,536.266849
731.215379,-2886.803174,-9326.594869,306.438199
731.215692,-2590.720797,-9326.594869,76.609550
731.216005,-2368.659014,-9030.512492,229.828649
731.216317,-2738.761985,-9178.553681,766.095498
731.216630,-3182.885551,-9474.636058,76.609550
731.216943,-3034.844362,-9474.636058,-229.828649
731.217255,-3256.906145,-9474.636058,-459.657299
731.217568,-3256.906145,-9400.615463,-306.438199
731.217881,-3552.988522,-9400.615463,-306.438199
731.218193,-3923.091493,-9400.615463,0.000000
731.218506,-3552.988522,-9252.574275,383.047749
731.218819,-3552.988522,-9030.512492,0.000000
731.219131,-3552.988522,-9030.512492,-536.266849
731.219444,-3701.029710,-8808.450710,-536.266849
731.219757,-3775.050304,-8660.409521,-766.095498
731.220069,-3627.009116,-8956.491898,-919.314598
731.220382,-3701.029710,-9104.533087,-383.047749
731.220695,-3478.967927,-9178.553681,229.828649
731.221007,-3256.906145,-9474.636058,459.657299
731.221320,-3256.906145,-9548.656652,919.314598
731.221633,-3404.947333,-9252.574275,306.438199
731.221945,-3404.947333,-9474.636058,0.000000
731.222258,-3256.906145,-9400.615463,0.000000
731.222570,-3330.926739,-9400.615463,-229.828649
731.222883,-3627.009116,-9252.574275,0.000000
731.223196,-3256.906145,-9178.553681,0.000000
731.223508,-3404.947333,-9104.533087,229.828649
731.223821,-3701.029710,-8512.368333,229.828649
731.224134,-3775.050304,-8660.409521,153.219100
731.224446,-3775.050304,-9104.533087,536.266849
731.224759,-3701.029710,-9252.574275,612.876398
731.225072,-3849.070898,-8660.409521,306.438199
731.225384,-3701.029710,-8586.388927,76.609550
731.225697,-3478.967927,-8364.327145,306.438199
731.226010,-3627.009116,-8586.388927,1149.143247
731.226322,-3701.029710,-8660.409521,919.314598
731.226635,-3701.029710,-8660.409521,383.047749
731.226948,-3404.947333,-8734.430116,612.876398
731.227260,-3182.885551,-8808.450710,995.924147
731.227573,-3182.885551,-9030.512492,1225.752797
731.227886,-3330.926739,-8882.471304,1149.143247
731.228198,-3182.885551,-8956.491898,1072.533697
731.228511,-3330.926739,-8808.450710,1302.362347
731.228824,-2886.803174,-8512.368333,1302.362347
731.229136,-3108.864956,-8512.368333,1149.143247
731.229449,-2960.823768,-8660.409521,919.314598
731.229762,-3478.967927,-8660.409521,1072.533697
731.230074,-3330.926739,-8882.471304,1378.971896
731.230387,-3627.009116,-8438.347739,1302.362347
731.230700,-3256.906145,-8364.327145,2374.896044
731.231012,-3108.864956,-8290.306550,1149.143247
731.231325,-2738.761985,-8660.409521,1378.971896
731.231638,-3182.885551,-8586.388927,1378.971896
731.231950,-3330.926739,-8660.409521,1302.362347
731.232263,-3108.864956,-8956.491898,1072.533697
731.232576,-3182.885551,-8734.430116,1378.971896
731.232888,-2960.823768,-8808.450710,1378.971896
731.233201,-3108.864956,-9326.594869,1149.143247
731.233514,-2738.761985,-8808.450710,2221.676944
731.233826,-3256.906145,-8290.306550,995.924147
731.234139,-3552.988522,-8882.471304,919.314598
731.234452,-3256.906145,-8956.491898,842.705048
731.234764,-3034.844362,-8882.471304,612.876398
731.235077,-3034.844362,-8882.471304,842.705048
731.235390,-2664.741391,-8660.409521,536.266849
731.235702,-3108.864956,-8438.347739,919.314598
731.236015,-2516.700203,-9252.574275,919.314598
731.236328,-3182.885551,-8586.388927,842.705048
731.236640,-2886.803174,-9030.512492,919.314598
731.236953,-3108.864956,-9104.533087,842.705048
731.237266,-3108.864956,-9400.615463,995.924147
731.237578,-3256.906145,-9178.553681,1532.190996
731.237891,-3701.029710,-9104.533087,689.485948
731.238204,-3923.091493,-8882.471304,459.657299
731.238516,-3552.988522,-8734.430116,459.657299
731.238829,-3552.988522,-8734.430116,0.000000
731.239142,-3775.050304,-8808.450710,0.000000
731.239454,-3997.112087,-8734.430116,0.000000
731.239767,-3701.029710,-8882.471304,76.609550
731.240080,-3775.050304,-9030.512492,306.438199
731.240392,-3478.967927,-8290.306550,-153.219100
731.240705,-3256.906145,-8512.368333,76.609550
731.241018,-2886.803174,-8734.430116,0.000000
731.241330,-3330.926739,-9030.512492,306.438199
731.241643,-3256.906145,-9178.553681,229.828649
731.241956,-3256.906145,-9178.553681,0.000000
731.242268,-3330.926739,-9474.636058,306.438199
731.242581,-3478.967927,-9252.574275,536.266849
731.242894,-3478.967927,-9326.594869,76.609550
731.243206,-3775.050304,-8956.491898,76.609550
731.243519,-3627.009116,-9252.574275,229.828649
731.243832,-3627.009116,-9326.594869,0.000000
731.244144,-3849.070898,-8956.491898,-306.438199
731.244457,-3923.091493,-8808.450710,0.000000
731.244770,-3404.947333,-8882.471304,-229.828649
731.245082,-3404.947333,-8512.368333,-153.219100
731.245395,-3404.947333,-8142.265362,-153.219100
731.245708,-3923.091493,-8586.388927,306.438199
731.246020,-3108.864956,-9252.574275,76.609550
731.246333,-2812.782580,-9326.594869,0.000000
731.246646,-3552.988522,-8660.409521,0.000000
731.246958,-3775.050304,-9474.636058,1072.533697
731.247271,-3108.864956,-9622.677246,1072.533697
731.247584,-3034.844362,-9104.533087,766.095498
731.247896,-3182.885551,-8512.368333,306.438199
731.248209,-2812.782580,-9252.574275,306.438199
731.248522,-3182.885551,-8956.491898,76.609550
731.248834,-3701.029710,-9030.512492,306.438199
731.249147,-3701.029710,-8956.491898,689.485948
731.249460,-2886.803174,-8956.491898,383.047749
731.249772,-3034.844362,-8364.327145,689.485948
731.250085,-3330.926739,-8586.388927,689.485948
731.250398,-3330.926739,-8438.347739,919.314598
731.250710,-2960.823768,-8586.388927,612.876398
731.251023,-2886.803174,-8586.388927,612.876398
731.251336,-3330.926739,-8734.430116,842.705048
731.251648,-3478.967927,-8882.471304,1072.533697
731.251961,-3478.967927,-9252.574275,1762.019645
731.252274,-3849.070898,-9252.574275,2145.067394
731.252586,-3701.029710,-8586.388927,1685.410096
731.252899,-3330.926739,-9030.512492,1762.019645
731.253212,-3701.029710,-9030.512492,1149.143247
731.253524,-3775.050304,-8586.388927,1072.533697
731.253837,-3404.947333,-8216.285956,153.219100
731.254150,-3552.988522,-8216.285956,306.438199
731.254462,-3775.050304,-8068.244768,766.095498
731.254775,-3478.967927,-8142.265362,919.314598
731.255088,-3182.885551,-7994.224174,842.705048
731.255400,-2812.782580,-8438.347739,766.095498
731.255713,-3478.967927,-8586.388927,1225.752797
731.256026,-3256.906145,-8808.450710,766.095498
731.256338,-3478.967927,-9252.574275,1149.143247
731.256651,-3478.967927,-9474.636058,1532.190996
731.256964,-3775.050304,-9104.533087,1838.629195
731.257276,-3923.091493,-8956.491898,2068.457845
731.257589,-3627.009116,-9104.533087,1455.581446
731.257902,-3478.967927,-9252.574275,919.314598
731.258214,-4293.194464,-8660.409521,0.000000
731.258527,-3923.091493,-8364.327145,0.000000
731.258840,-3627.009116,-7920.203579,-612.876398
731.259152,-3552.988522,-8290.306550,-229.828649
731.259465,-4071.132681,-8364.327145,0.000000
731.259778,-3849.070898,-7846.182985,612.876398
731.260090,-3034.844362,-8216.285956,306.438199
731.260403,-3034.844362,-8882.471304,766.095498
731.260716,-3701.029710,-8956.491898,1149.143247
731.261028,-3404.947333,-9252.574275,1149.143247
731.261341,-3478.967927,-9400.615463,1149.143247
731.261654,-3552.988522,-9474.636058,1149.143247
731.261966,-3701.029710,-8438.347739,766.095498
731.262279,-3775.050304,-8808.450710,766.095498
731.262592,-3701.029710,-9252.574275,842.705048
731.262904,-3849.070898,-8956.491898,-153.219100
731.263217,-3627.009116,-8808.450710,-306.438199
731.263530,-3775.050304,-8882.471304,0.000000
731.263842,-3256.906145,-9104.533087,229.828649
731.264155,-3108.864956,-8290.306550,0.000000
731.264468,-3701.029710,-8068.244768,153.219100
731.264780,-3404.947333,-9178.553681,1302.362347
731.265093,-2960.823768,-8734.430116,153.219100
731.265406,-2960.823768,-8660.409521,306.438199
731.265718,-3404.947333,-9104.533087,766.095498
731.266031,-3627.009116,-9474.636058,766.095498
731.266344,-3256.906145,-9400.615463,995.924147
731.266656,-3108.864956,-8956.491898,1072.533697
731.266969,-3552.988522,-8808.450710,1149.143247
731.267282,-3552.988522,-9252.574275,689.485948
731.267594,-3256.906145,-8956.491898,-612.876398
731.267907,-3404.947333,-8660.409521,-919.314598
731.268220,-3404.947333,-8364.327145,-536.266849
731.268532,-3034.844362,-8882.471304,0.000000
731.268845,-2664.741391,-9104.533087,0.000000
731.269158,-1850.514855,-9548.656652,612.876398
731.269470,-2442.679609,-9104.533087,689.485948
731.269783,-2886.803174,-9030.512492,383.047749
731.270096,-2146.597232,-9178.553681,0.000000
731.270408,-2368.659014,-9326.594869,459.657299
731.270721,-2590.720797,-9548.656652,612.876398
731.271034,-2368.659014,-9844.739029,383.047749
731.271346,-2368.659014,-9474.636058,153.219100
731.271659,-2294.638420,-9474.636058,842.705048
731.271971,-3256.906145,-9252.574275,766.095498
731.272284,-2886.803174,-9400.615463,689.485948
731.272597,-3034.844362,-9400.615463,153.219100
731.272909,-2960.823768,-9326.594869,0.000000
731.273222,-2960.823768,-9030.512492,0.000000
731.273535,-3330.926739,-8660.409521,459.657299
731.273847,-3701.029710,-8586.388927,459.657299
731.274160,-3552.988522,-8586.388927,153.219100
731.274473,-3552.988522,-8808.450710,0.000000
731.274785,-3404.947333,-8808.450710,76.609550
731.275098,-3627.009116,-8956.491898,919.314598
731.275411,-3404.947333,-8956.491898,842.705048
731.275723,-3330.926739,-9178.553681,766.095498
731.276036,-3849.070898,-9104.533087,919.314598
731.276349,-3997.112087,-8882.471304,919.314598
731.276661,-3552.988522,-8882.471304,1149.143247
731.276974,-3552.988522,-9252.574275,229.828649
731.277287,-3701.029710,-9178.553681,995.924147
731.277599,-3478.967927,-8956.491898,306.438199
731.277912,-3478.967927,-8660.409521,689.485948
731.278225,-3404.947333,-8734.430116,612.876398
731.278537,-3330.926739,-8734.430116,842.705048
731.278850,-3182.885551,-8808.450710,919.314598
731.279162,-3256.906145,-8734.430116,842.705048
731.279475,-3478.967927,-8438.347739,1072.533697
731.279788,-3478.967927,-8512.368333,919.314598
