#time,accel_x,accel_y,accel_z
6342.691732,-3849.070898,-8586.388927,766.095498
6342.692055,-3775.050304,-8660.409521,1149.143247
6342.692377,-3256.906145,-9252.574275,229.828649
6342.692700,-3701.029710,-8882.471304,229.828649
6342.693022,-3701.029710,-8956.491898,153.219100
6342.693345,-3701.029710,-8586.388927,612.876398
6342.693667,-3627.009116,-8882.471304,689.485948
6342.693990,-4071.132681,-8586.388927,76.609550
6342.694312,-3552.988522,-8734.430116,0.000000
6342.694635,-3923.091493,-8364.327145,306.438199
6342.694958,-3701.029710,-8438.347739,919.314598
6342.695280,-3552.988522,-9030.512492,383.047749
6342.695603,-3849.070898,-8882.471304,689.485948
6342.695925,-3849.070898,-8882.471304,383.047749
6342.696248,-3849.070898,-8586.388927,536.266849
6342.696570,-3478.967927,-8734.430116,919.314598
6342.696893,-3478.967927,-8808.450710,766.095498
6342.697215,-3701.029710,-8734.430116,76.609550
6342.697538,-3849.070898,-8956.491898,459.657299
6342.697861,-3627.009116,-8956.491898,612.876398
6342.698183,-3849.070898,-8882.471304,536.266849
6342.698506,-3849.070898,-8956.491898,842.705048
6342.698828,-3478.967927,-9030.512492,76.609550
6342.699151,-3923.091493,-7920.203579,612.876398
6342.699473,-3701.029710,-8586.388927,306.438199
6342.699796,-3849.070898,-8364.327145,383.047749
6342.700118,-3627.009116,-9104.533087,766.095498
6342.700441,-3552.988522,-8956.491898,383.047749
6342.700764,-3627.009116,-8734.430116,612.876398
6342.701086,-3849.070898,-8734.430116,995.924147
6342.701409,-4071.132681,-8660.409521,536.266849
6342.701731,-3775.050304,-8586.388927,0.000000
6342.702054,-3849.070898,-8586.388927,229.828649
6342.702376,-3627.009116,-8882.471304,459.657299
6342.702699,-3701.029710,-8956.491898,306.438199
6342.703021,-3849.070898,-8882.471304,612.876398
6342.703344,-3330.926739,-8734.430116,1072.533697
6342.703667,-3997.112087,-8290.306550,1225.752797
6342.703989,-4367.215058,-8808.450710,1149.143247
6342.704312,-3552.988522,-8660.409521,306.438199
6342.704634,-3701.029710,-8734.430116,842.705048
6342.704957,-3775.050304,-8660.409521,153.219100
6342.705279,-3627.009116,-8956.491898,459.657299
6342.705602,-4071.132681,-8586.388927,383.047749
6342.705924,-3775.050304,-8882.471304,153.219100
6342.706247,-4293.194464,-8512.368333,919.314598
6342.706569,-3849.070898,-9030.512492,842.705048
6342.706892,-3182.885551,-9326.594869,153.219100
6342.707215,-3552.988522,-9252.574275,306.438199
6342.707537,-3701.029710,-8956.491898,536.266849
6342.707860,-3627.009116,-9252.574275,766.095498
6342.708182,-3627.009116,-8808.450710,459.657299
6342.708505,-3701.029710,-8660.409521,0.000000
6342.708827,-3627.009116,-8438.347739,383.047749
6342.709150,-3701.029710,-8364.327145,689.485948
6342.709472,-3478.967927,-8882.471304,0.000000
6342.709795,-3701.029710,-8956.491898,612.876398
6342.710118,-3701.029710,-8734.430116,383.047749
6342.710440,-3552.988522,-8956.491898,459.657299
6342.710763,-3923.091493,-8364.327145,612.876398
6342.711085,-3182.885551,-9178.553681,919.314598
6342.711408,-3330.926739,-9400.615463,536.266849
6342.711730,-3775.050304,-8956.491898,995.924147
6342.712053,-3701.029710,-8956.491898,612.876398
6342.712375,-3701.029710,-8734.430116,536.266849
6342.712698,-3701.029710,-8808.450710,536.266849
6342.713021,-3849.070898,-8586.388927,689.485948
6342.713343,-3330.926739,-8660.409521,766.095498
6342.713666,-3997.112087,-8586.388927,229.828649
6342.713988,-3552.988522,-8956.491898,842.705048
6342.714311,-3849.070898,-8882.471304,306.438199
6342.714633,-3552.988522,-8808.450710,766.095498
6342.714956,-3478.967927,-9178.553681,306.438199
6342.715278,-3627.009116,-8734.430116,459.657299
6342.715601,-3849.070898,-8438.347739,1072.533697
6342.715924,-3552.988522,-8586.388927,919.314598
6342.716246,-3330.926739,-8808.450710,-383.047749
6342.716569,-3701.029710,-8734.430116,229.828649
6342.716891,-3330.926739,-8734.430116,229.828649
6342.717214,-3256.906145,-8660.409521,0.000000
6342.717536,-3404.947333,-8956.491898,229.828649
6342.717859,-3404.947333,-9030.512492,153.219100
6342.718181,-3330.926739,-8882.471304,536.266849
6342.718504,-3404.947333,-8734.430116,1225.752797
6342.718827,-3404.947333,-8808.450710,1302.362347
6342.719149,-3552.988522,-9030.512492,842.705048
6342.719472,-3627.009116,-9104.533087,536.266849
6342.719794,-3775.050304,-8882.471304,0.000000
6342.720117,-4219.173869,-8808.450710,459.657299
6342.720439,-4219.173869,-8882.471304,383.047749
6342.720762,-2886.803174,-9400.615463,0.000000
6342.721084,-3404.947333,-8290.306550,306.438199
6342.721407,-3404.947333,-8438.347739,0.000000
6342.721730,-3849.070898,-8808.450710,153.219100
6342.722052,-3478.967927,-8734.430116,229.828649
6342.722375,-2738.761985,-9104.533087,0.000000
6342.722697,-2664.741391,-8882.471304,1072.533697
6342.723020,-3256.906145,-8882.471304,1455.581446
6342.723342,-3256.906145,-9770.718434,1072.533697
6342.723665,-2960.823768,-9474.636058,689.485948
6342.723987,-2886.803174,-9622.677246,0.000000
6342.724310,-3923.091493,-9326.594869,306.438199
6342.724633,-4441.235652,-8882.471304,766.095498
6342.724955,-3849.070898,-8512.368333,842.705048
6342.725278,-3404.947333,-8586.388927,0.000000
6342.725600,-4515.256246,-8364.327145,0.000000
6342.725923,-4367.215058,-8216.285956,153.219100
6342.726245,-3775.050304,-8364.327145,0.000000
6342.726568,-3404.947333,-8586.388927,76.609550
6342.726890,-3478.967927,-8956.491898,0.000000
6342.727213,-3478.967927,-8660.409521,919.314598
6342.727535,-3478.967927,-8660.409521,919.314598
6342.727858,-3108.864956,-8956.491898,383.047749
6342.728181,-2812.782580,-9770.718434,459.657299
6342.728503,-2590.720797,-9474.636058,153.219100
6342.728826,-2590.720797,-9474.636058,689.485948
6342.729148,-2812.782580,-8956.491898,536.266849
6342.729471,-2812.782580,-9104.533087,76.609550
6342.729793,-2738.761985,-8882.471304,0.000000
6342.730116,-1554.432478,-9474.636058,0.000000
6342.730438,-2664.741391,-8660.409521,689.485948
6342.730761,-3108.864956,-8512.368333,306.438199
6342.731084,-2886.803174,-9326.594869,0.000000
6342.731406,-2738.761985,-8660.409521,-612.876398
6342.731729,-2516.700203,-9252.574275,0.000000
6342.732051,-3627.009116,-8660.409521,689.485948
6342.732374,-2960.823768,-9030.512492,459.657299
6342.732696,-2812.782580,-9252.574275,-153.219100
6342.733019,-2886.803174,-9326.594869,0.000000
6342.733341,-3108.864956,-9474.636058,459.657299
6342.733664,-3330.926739,-9252.574275,459.657299
6342.733987,-3108.864956,-9178.553681,459.657299
6342.734309,-3108.864956,-8956.491898,-612.876398
6342.734632,-3034.844362,-9252.574275,-229.828649
6342.734954,-3923.091493,-8364.327145,76.609550
6342.735277,-3701.029710,-8882.471304,0.000000
6342.735599,-3552.988522,-8808.450710,-842.705048
6342.735922,-3478.967927,-8734.430116,-842.705048
6342.736244,-3627.009116,-9104.533087,-689.485948
6342.736567,-3330.926739,-7994.224174,-306.438199
6342.736890,-2664.741391,-9252.574275,-306.438199
6342.737212,-2664.741391,-9252.574275,-383.047749
6342.737535,-2960.823768,-9252.574275,76.609550
6342.737857,-3552.988522,-8734.430116,0.000000
6342.738180,-3182.885551,-9030.512492,153.219100
6342.738502,-4145.153275,-9178.553681,-383.047749
6342.738825,-3849.070898,-8660.409521,-306.438199
6342.739147,-4515.256246,-8882.471304,0.000000
6342.739470,-4811.338623,-8438.347739,-536.266849
6342.739792,-4737.318029,-8438.347739,-536.266849
6342.740115,-4663.297435,-8438.347739,-1149.143247
6342.740438,-4663.297435,-8068.244768,-1532.190996
6342.740760,-4367.215058,-8216.285956,-1225.752797
6342.741083,-4219.173869,-8290.306550,-1532.190996
6342.741405,-3997.112087,-8438.347739,-306.438199
6342.741728,-3627.009116,-8808.450710,-1302.362347
6342.742050,-3627.009116,-8438.347739,-459.657299
6342.742373,-3478.967927,-9104.533087,-612.876398
6342.742695,-3552.988522,-9178.553681,-689.485948
6342.743018,-3330.926739,-9918.759623,-459.657299
6342.743341,-3775.050304,-9844.739029,-153.219100
6342.743663,-3478.967927,-9622.677246,76.609550
6342.743986,-3182.885551,-9400.615463,-766.095498
6342.744308,-3775.050304,-9400.615463,-229.828649
6342.744631,-3997.112087,-9030.512492,0.000000
6342.744953,-3478.967927,-9104.533087,-459.657299
6342.745276,-3330.926739,-8882.471304,0.000000
6342.745598,-3849.070898,-8808.450710,306.438199
6342.745921,-3701.029710,-8438.347739,229.828649
6342.746244,-3923.091493,-8734.430116,-306.438199
6342.746566,-4145.153275,-8882.471304,306.438199
6342.746889,-3627.009116,-9178.553681,0.000000
6342.747211,-3775.050304,-9252.574275,995.924147
6342.747534,-3701.029710,-9252.574275,1302.362347
6342.747856,-3775.050304,-9326.594869,1455.581446
6342.748179,-3478.967927,-9548.656652,1225.752797
6342.748501,-3330.926739,-9326.594869,919.314598
6342.748824,-3034.844362,-9104.533087,1838.629195
6342.749146,-3034.844362,-8956.491898,1608.800546
6342.749469,-2368.659014,-9030.512492,1915.238745
6342.749792,-2738.761985,-9252.574275,1455.581446
6342.750114,-2812.782580,-8660.409521,1532.190996
6342.750437,-2960.823768,-9030.512492,1685.410096
6342.750759,-3108.864956,-8512.368333,1225.752797
6342.751082,-2738.761985,-9104.533087,2068.457845
6342.751404,-3627.009116,-8512.368333,2145.067394
6342.751727,-3330.926739,-8586.388927,2374.896044
6342.752049,-3627.009116,-8512.368333,2068.457845
6342.752372,-3552.988522,-8808.450710,2068.457845
6342.752695,-3849.070898,-8364.327145,2068.457845
6342.753017,-3775.050304,-8438.347739,1532.190996
6342.753340,-4145.153275,-8068.244768,1762.019645
6342.753662,-4293.194464,-8068.244768,2451.505594
6342.753985,-4589.276840,-7550.100608,2068.457845
6342.754307,-4145.153275,-8142.265362,1685.410096
6342.754630,-4293.194464,-7920.203579,1838.629195
6342.754952,-4145.153275,-7920.203579,1991.848295
6342.755275,-3923.091493,-7920.203579,1762.019645
6342.755597,-3701.029710,-7772.162391,1302.362347
6342.755920,-3701.029710,-8882.471304,1378.971896
6342.756243,-4071.132681,-7994.224174,2298.286494
6342.756565,-4219.173869,-8068.244768,2298.286494
6342.756888,-3701.029710,-8586.388927,1685.410096
6342.757210,-3923.091493,-8660.409521,1991.848295
6342.757533,-4293.194464,-8512.368333,1608.800546
6342.757855,-4737.318029,-8882.471304,2145.067394
6342.758178,-4663.297435,-8290.306550,1685.410096
6342.758500,-4219.173869,-8808.450710,459.657299
6342.758823,-4589.276840,-8216.285956,842.705048
6342.759146,-4885.359217,-8142.265362,536.266849
6342.759468,-4811.338623,-8364.327145,766.095498
6342.759791,-4885.359217,-8660.409521,612.876398
6342.760113,-4737.318029,-8438.347739,383.047749
6342.760436,-4515.256246,-8438.347739,1149.143247
6342.760758,-3849.070898,-8364.327145,842.705048
6342.761081,-3849.070898,-9030.512492,153.219100
6342.761403,-4219.173869,-8808.450710,689.485948
6342.761726,-4219.173869,-8808.450710,689.485948
6342.762049,-4293.194464,-9104.533087,383.047749
6342.762371,-4293.194464,-9178.553681,459.657299
6342.762694,-4071.132681,-9104.533087,0.000000
6342.763016,-4293.194464,-8956.491898,-1149.143247
6342.763339,-3701.029710,-9104.533087,-153.219100
6342.763661,-4293.194464,-8808.450710,-153.219100
6342.763984,-4071.132681,-8956.491898,-536.266849
6342.764306,-3627.009116,-9104.533087,-306.438199
6342.764629,-3627.009116,-8808.450710,-306.438199
6342.764951,-3701.029710,-8808.450710,-153.219100
6342.765274,-3775.050304,-8956.491898,-153.219100
6342.765597,-3552.988522,-9252.574275,-383.047749
6342.765919,-3182.885551,-9622.677246,-536.266849
6342.766242,-3404.947333,-9770.718434,0.000000
6342.766564,-3701.029710,-9178.553681,0.000000
6342.766887,-3627.009116,-9474.636058,153.219100
6342.767209,-3997.112087,-8808.450710,0.000000
6342.767532,-3552.988522,-9474.636058,0.000000
6342.767854,-3627.009116,-8808.450710,-766.095498
6342.768177,-3775.050304,-8882.471304,-689.485948
6342.768500,-3923.091493,-8586.388927,-612.876398
6342.768822,-3330.926739,-9104.533087,-229.828649
6342.769145,-3330.926739,-8882.471304,-383.047749
6342.769467,-3182.885551,-8882.471304,0.000000
6342.769790,-3256.906145,-8808.450710,842.705048
6342.770112,-3034.844362,-8586.388927,0.000000
6342.770435,-2664.741391,-9326.594869,689.485948
6342.770757,-2886.803174,-9326.594869,689.485948
6342.771080,-3256.906145,-9252.574275,1072.533697
6342.771403,-3701.029710,-8882.471304,842.705048
6342.771725,-3627.009116,-9252.574275,842.705048
6342.772048,-4145.153275,-8734.430116,536.266849
6342.772370,-3923.091493,-8438.347739,1072.533697
6342.772693,-4515.256246,-8068.244768,1072.533697
6342.773015,-4367.215058,-8660.409521,0.000000
6342.773338,-4737.318029,-7846.182985,229.828649
6342.773660,-5033.400406,-8290.306550,383.047749
6342.773983,-4885.359217,-8142.265362,766.095498
6342.774305,-4589.276840,-7846.182985,766.095498
6342.774628,-4515.256246,-8364.327145,842.705048
6342.774951,-4737.318029,-8512.368333,1149.143247
6342.775273,-4219.173869,-8586.388927,1532.190996
6342.775596,-4737.318029,-8660.409521,1378.971896
6342.775918,-4737.318029,-8734.430116,1685.410096
6342.776241,-4441.235652,-8808.450710,1915.238745
6342.776563,-3627.009116,-8216.285956,1302.362347
6342.776886,-4737.318029,-8364.327145,2374.896044
6342.777208,-5033.400406,-8512.368333,1991.848295
6342.777531,-4367.215058,-8512.368333,1072.533697
6342.777854,-3849.070898,-8512.368333,766.095498
6342.778176,-3627.009116,-7994.224174,1072.533697
6342.778499,-3701.029710,-8290.306550,1608.800546
6342.778821,-3923.091493,-8216.285956,1838.629195
6342.779144,-3478.967927,-8068.244768,1149.143247
6342.779466,-3330.926739,-8882.471304,1225.752797
6342.779789,-3478.967927,-7994.224174,2451.505594
6342.780111,-3552.988522,-8808.450710,2681.334243
6342.780434,-3256.906145,-8734.430116,2374.896044
6342.780757,-2960.823768,-8734.430116,1532.190996
6342.781079,-3552.988522,-9178.553681,1225.752797
6342.781402,-3923.091493,-8586.388927,1685.410096
6342.781724,-3701.029710,-8364.327145,1455.581446
6342.782047,-2664.741391,-8808.450710,1072.533697
6342.782369,-2886.803174,-8882.471304,1225.752797
6342.782692,-3404.947333,-8808.450710,2145.067394
6342.783014,-3478.967927,-8364.327145,1991.848295
6342.783337,-3552.988522,-8808.450710,1608.800546
6342.783659,-3849.070898,-8586.388927,229.828649
6342.783982,-4219.173869,-8512.368333,0.000000
6342.784305,-4219.173869,-8734.430116,536.266849
6342.784627,-4145.153275,-7994.224174,229.828649
6342.784950,-4441.235652,-8808.450710,306.438199
6342.785272,-4145.153275,-9104.533087,0.000000
6342.785595,-3478.967927,-9400.615463,0.000000
6342.785917,-3330.926739,-9178.553681,-383.047749
6342.786240,-3552.988522,-9030.512492,536.266849
6342.786562,-3552.988522,-9252.574275,689.485948
6342.786885,-3182.885551,-9252.574275,459.657299
6342.787208,-3404.947333,-9548.656652,0.000000
6342.787530,-3923.091493,-9696.697840,459.657299
6342.787853,-4367.215058,-9400.615463,229.828649
6342.788175,-4367.215058,-9474.636058,0.000000
6342.788498,-3997.112087,-9252.574275,229.828649
6342.788820,-4367.215058,-8808.450710,-383.047749
6342.789143,-4737.318029,-8438.347739,-1532.190996
6342.789465,-4589.276840,-8290.306550,-612.876398
6342.789788,-3849.070898,-8364.327145,-1532.190996
6342.790110,-3849.070898,-8586.388927,-919.314598
6342.790433,-4071.132681,-8808.450710,0.000000
6342.790756,-3256.906145,-9178.553681,1532.190996
6342.791078,-2368.659014,-9030.512492,995.924147
6342.791401,-2220.617826,-9622.677246,1302.362347
6342.791723,-3923.091493,-8808.450710,1838.629195
6342.792046,-4367.215058,-9400.615463,1072.533697
6342.792368,-4071.132681,-9252.574275,459.657299
6342.792691,-4071.132681,-9474.636058,0.000000
6342.793013,-5033.400406,-8438.347739,-306.438199
6342.793336,-5625.565159,-8364.327145,1072.533697
6342.793659,-4737.318029,-8586.388927,459.657299
6342.793981,-3256.906145,-9104.533087,-842.705048
6342.794304,-3997.112087,-7846.182985,-842.705048
6342.794626,-4293.194464,-7920.203579,383.047749
6342.794949,-3923.091493,-8290.306550,1072.533697
6342.795271,-3034.844362,-8438.347739,536.266849
6342.795594,-3108.864956,-8438.347739,0.000000
6342.795916,-3627.009116,-9030.512492,1072.533697
6342.796239,-3923.091493,-9030.512492,2604.724693
6342.796562,-2886.803174,-9474.636058,919.314598
6342.796884,-3627.009116,-9992.780217,1378.971896
6342.797207,-4367.215058,-9030.512492,1149.143247
6342.797529,-4293.194464,-8956.491898,1378.971896
6342.797852,-4219.173869,-8216.285956,919.314598
6342.798174,-3849.070898,-8438.347739,1072.533697
6342.798497,-4219.173869,-8660.409521,306.438199
6342.798819,-4441.235652,-7698.141797,1072.533697
6342.799142,-4515.256246,-7772.162391,1455.581446
6342.799464,-4293.194464,-7920.203579,1532.190996
6342.799787,-4293.194464,-8290.306550,689.485948
6342.800110,-4589.276840,-8364.327145,1455.581446
6342.800432,-4515.256246,-7698.141797,1455.581446
6342.800755,-4663.297435,-8216.285956,1455.581446
6342.801077,-4293.194464,-9178.553681,1991.848295
6342.801400,-4515.256246,-8734.430116,1378.971896
6342.801722,-3849.070898,-8882.471304,1532.190996
6342.802045,-3627.009116,-8586.388927,1455.581446
6342.802367,-3997.112087,-8660.409521,1762.019645
6342.802690,-3330.926739,-8364.327145,1149.143247
6342.803013,-3775.050304,-8142.265362,1608.800546
6342.803335,-3182.885551,-8586.388927,-306.438199
6342.803658,-3701.029710,-8068.244768,766.095498
6342.803980,-4293.194464,-8438.347739,1225.752797
6342.804303,-4071.132681,-8438.347739,1455.581446
6342.804625,-4071.132681,-8438.347739,1302.362347
6342.804948,-3923.091493,-8660.409521,1455.581446
6342.805270,-4293.194464,-8438.347739,1762.019645
6342.805593,-4441.235652,-8068.244768,1455.581446
6342.805916,-4219.173869,-8068.244768,1532.190996
6342.806238,-4071.132681,-8882.471304,1302.362347
6342.806561,-4071.132681,-8586.388927,1225.752797
6342.806883,-3923.091493,-8512.368333,995.924147
6342.807206,-3849.070898,-8660.409521,1302.362347
6342.807528,-3627.009116,-8882.471304,1149.143247
6342.807851,-3108.864956,-9770.718434,1225.752797
6342.808173,-3775.050304,-8660.409521,1302.362347
6342.808496,-3701.029710,-8956.491898,1149.143247
6342.808818,-3478.967927,-9104.533087,842.705048
6342.809141,-3404.947333,-9326.594869,766.095498
6342.809464,-3627.009116,-9252.574275,919.314598
6342.809786,-3923.091493,-9104.533087,1685.410096
6342.810109,-3182.885551,-9178.553681,1762.019645
6342.810431,-2960.823768,-10140.821405,995.924147
6342.810754,-3330.926739,-9252.574275,842.705048
6342.811076,-3552.988522,-9252.574275,536.266849
6342.811399,-3923.091493,-9104.533087,766.095498
6342.811721,-4071.132681,-9030.512492,306.438199
6342.812044,-4071.132681,-8512.368333,153.219100
6342.812367,-3997.112087,-8660.409521,-153.219100
6342.812689,-3997.112087,-8660.409521,76.609550
6342.813012,-4293.194464,-8068.244768,-229.828649
6342.813334,-3775.050304,-8734.430116,229.828649
6342.813657,-3701.029710,-8586.388927,229.828649
6342.813979,-3552.988522,-8586.388927,689.485948
6342.814302,-3330.926739,-9030.512492,0.000000
6342.814624,-3701.029710,-8956.491898,1302.362347
6342.814947,-3701.029710,-8068.244768,1225.752797
6342.815270,-3701.029710,-8660.409521,536.266849
6342.815592,-3923.091493,-8808.450710,306.438199
6342.815915,-4145.153275,-8586.388927,76.609550
6342.816237,-4219.173869,-8216.285956,0.000000
6342.816560,-4219.173869,-8586.388927,536.266849
6342.816882,-4515.256246,-8068.244768,153.219100
6342.817205,-3997.112087,-8438.347739,-995.924147
6342.817527,-4071.132681,-7772.162391,153.219100
6342.817850,-4145.153275,-8216.285956,229.828649
6342.818172,-3997.112087,-8142.265362,383.047749
6342.818495,-3849.070898,-8808.450710,383.047749
6342.818818,-4219.173869,-8512.368333,459.657299
6342.819140,-3849.070898,-8808.450710,842.705048
6342.819463,-4367.215058,-8586.388927,689.485948
6342.819785,-4219.173869,-9104.533087,1225.752797
6342.820108,-4071.132681,-9178.553681,383.047749
6342.820430,-4441.235652,-8882.471304,459.657299
6342.820753,-4589.276840,-8882.471304,76.609550
6342.821075,-4589.276840,-8586.388927,0.000000
6342.821398,-4293.194464,-9030.512492,153.219100
6342.821721,-4293.194464,-8808.450710,-842.705048
6342.822043,-4293.194464,-8364.327145,0.000000
6342.822366,-4145.153275,-8808.450710,-229.828649
6342.822688,-4219.173869,-8734.430116,459.657299
6342.823011,-3552.988522,-9252.574275,766.095498
6342.823333,-3404.947333,-9030.512492,689.485948
6342.823656,-3182.885551,-9252.574275,1149.143247
6342.823978,-3256.906145,-8882.471304,536.266849
6342.824301,-3552.988522,-9400.615463,0.000000
6342.824623,-3997.112087,-8956.491898,459.657299
6342.824946,-3923.091493,-9178.553681,229.828649
6342.825269,-4219.173869,-9178.553681,383.047749
6342.825591,-4293.194464,-9104.533087,459.657299
6342.825914,-3997.112087,-8882.471304,1149.143247
6342.826236,-3849.070898,-8586.388927,1149.143247
6342.826559,-3849.070898,-8364.327145,1532.190996
6342.826881,-3552.988522,-8512.368333,306.438199
6342.827204,-3849.070898,-8364.327145,1072.533697
6342.827526,-3849.070898,-8586.388927,842.705048
6342.827849,-4219.173869,-8512.368333,842.705048
6342.828172,-4441.235652,-8660.409521,689.485948
6342.828494,-4515.256246,-9030.512492,1149.143247
6342.828817,-4145.153275,-8734.430116,842.705048
6342.829139,-3849.070898,-9178.553681,919.314598
6342.829462,-4071.132681,-8882.471304,1225.752797
6342.829784,-3775.050304,-8586.388927,1455.581446
6342.830107,-3108.864956,-8882.471304,1302.362347
6342.830429,-3108.864956,-8364.327145,1072.533697
6342.830752,-3256.906145,-8586.388927,1149.143247
6342.831075,-3108.864956,-8808.450710,1072.533697
6342.831397,-3330.926739,-8364.327145,1378.971896
6342.831720,-3256.906145,-8068.244768,1072.533697
6342.832042,-2886.803174,-8808.450710,1608.800546
6342.832365,-3256.906145,-8660.409521,1838.629195
6342.832687,-3108.864956,-8956.491898,1991.848295
6342.833010,-3478.967927,-8882.471304,2374.896044
6342.833333,-3627.009116,-8808.450710,1455.581446
6342.833655,-3849.070898,-9030.512492,766.095498
6342.833978,-4367.215058,-8142.265362,1532.190996
6342.834300,-4811.338623,-8512.368333,1302.362347
6342.834623,-4737.318029,-8512.368333,689.485948
6342.834945,-4811.338623,-8364.327145,459.657299
6342.835268,-4663.297435,-8364.327145,229.828649
6342.835590,-4145.153275,-8290.306550,536.266849
6342.835913,-3923.091493,-8364.327145,383.047749
6342.836236,-3552.988522,-8290.306550,689.485948
6342.836558,-3256.906145,-8586.388927,1378.971896
6342.836881,-3552.988522,-8660.409521,1302.362347
6342.837203,-3701.029710,-9104.533087,1225.752797
6342.837526,-3997.112087,-9326.594869,1302.362347
6342.837848,-3182.885551,-9474.636058,995.924147
6342.838171,-3849.070898,-8956.491898,1302.362347
6342.838493,-4145.153275,-9104.533087,842.705048
6342.838816,-3849.070898,-8438.347739,0.000000
6342.839139,-3478.967927,-8734.430116,-689.485948
6342.839461,-2960.823768,-8364.327145,-1455.581446
6342.839784,-2886.803174,-8364.327145,-1072.533697
6342.840106,-2442.679609,-8438.347739,-919.314598
6342.840429,-2664.741391,-8290.306550,-306.438199
6342.840751,-1924.535449,-8882.471304,-229.828649
6342.841074,-1554.432478,-9252.574275,0.000000
6342.841396,-2294.638420,-9474.636058,306.438199
6342.841719,-2072.576638,-9696.697840,229.828649
6342.842042,-2368.659014,-9918.759623,0.000000
6342.842364,-3034.844362,-9844.739029,-229.828649
6342.842687,-3627.009116,-10288.862594,-306.438199
6342.843009,-3404.947333,-9400.615463,-306.438199
6342.843332,-3997.112087,-9474.636058,-919.314598
6342.843654,-4367.215058,-9326.594869,-1378.971896
6342.843977,-4737.318029,-8660.409521,-1302.362347
6342.844299,-4737.318029,-8364.327145,-1455.581446
6342.844622,-4589.276840,-7994.224174,-1608.800546
6342.844945,-4293.194464,-8364.327145,-995.924147
6342.845267,-3849.070898,-8734.430116,-2528.115143
6342.845590,-3627.009116,-8808.450710,-1302.362347
6342.845912,-3701.029710,-9178.553681,-766.095498
6342.846235,-3404.947333,-9770.718434,0.000000
6342.846557,-3182.885551,-10066.800811,76.609550
6342.846880,-3256.906145,-9992.780217,306.438199
6342.847203,-2960.823768,-9770.718434,153.219100
6342.847525,-3182.885551,-9696.697840,842.705048
6342.847848,-3701.029710,-9696.697840,-229.828649
6342.848170,-3478.967927,-9030.512492,-536.266849
6342.848493,-3552.988522,-8956.491898,0.000000
6342.848815,-3997.112087,-9104.533087,0.000000
6342.849138,-4441.235652,-8808.450710,0.000000
6342.849460,-4293.194464,-8216.285956,-536.266849
6342.849783,-3923.091493,-8734.430116,-612.876398
6342.850106,-4145.153275,-8068.244768,459.657299
6342.850428,-4219.173869,-8068.244768,76.609550
6342.850751,-3701.029710,-8438.347739,153.219100
6342.851073,-3330.926739,-8734.430116,383.047749
6342.851396,-3108.864956,-9104.533087,842.705048
6342.851718,-2886.803174,-9030.512492,1838.629195
6342.852041,-2960.823768,-9104.533087,995.924147
6342.852363,-2738.761985,-9474.636058,766.095498
6342.852686,-2886.803174,-9178.553681,1378.971896
6342.853009,-3404.947333,-8586.388927,766.095498
6342.853331,-3404.947333,-8586.388927,612.876398
6342.853654,-3478.967927,-8290.306550,306.438199
6342.853976,-3256.906145,-8586.388927,383.047749
6342.854299,-3182.885551,-7476.080014,766.095498
6342.854621,-3330.926739,-8142.265362,1225.752797
6342.854944,-3330.926739,-8068.244768,1149.143247
6342.855266,-2738.761985,-8734.430116,766.095498
6342.855589,-2960.823768,-8586.388927,1072.533697
6342.855912,-2886.803174,-8660.409521,1072.533697
6342.856234,-2886.803174,-8734.430116,1532.190996
6342.856557,-2960.823768,-9400.615463,1685.410096
6342.856879,-2886.803174,-9178.553681,1685.410096
6342.857202,-3330.926739,-9400.615463,1149.143247
6342.857524,-3108.864956,-9400.615463,919.314598
6342.857847,-3404.947333,-9474.636058,919.314598
6342.858169,-3552.988522,-9178.553681,995.924147
6342.858492,-3627.009116,-9030.512492,766.095498
6342.858815,-3330.926739,-8882.471304,536.266849
6342.859137,-3552.988522,-9030.512492,842.705048
6342.859460,-2960.823768,-8142.265362,1072.533697
6342.859782,-3552.988522,-7920.203579,612.876398
6342.860105,-2960.823768,-8660.409521,612.876398
6342.860427,-3108.864956,-8734.430116,919.314598
6342.860750,-3256.906145,-8882.471304,1149.143247
6342.861073,-3404.947333,-8956.491898,1225.752797
6342.861395,-3256.906145,-9178.553681,1302.362347
6342.861718,-3404.947333,-9474.636058,-306.438199
6342.862040,-3701.029710,-9030.512492,306.438199
6342.862363,-3923.091493,-9252.574275,76.609550
6342.862685,-4071.132681,-8956.491898,0.000000
6342.863008,-4145.153275,-8956.491898,-153.219100
6342.863330,-3849.070898,-8512.368333,-229.828649
6342.863653,-3849.070898,-8660.409521,0.000000
6342.863976,-3552.988522,-8734.430116,-612.876398
6342.864298,-3552.988522,-8364.327145,0.000000
6342.864621,-3404.947333,-8438.347739,-153.219100
6342.864943,-3330.926739,-8734.430116,0.000000
6342.865266,-3256.906145,-9030.512492,306.438199
6342.865588,-3034.844362,-9178.553681,0.000000
6342.865911,-3330.926739,-9474.636058,919.314598
6342.866233,-3701.029710,-9252.574275,0.000000
6342.866556,-4145.153275,-9252.574275,76.609550
6342.866879,-4145.153275,-9770.718434,-1762.019645
6342.867201,-4071.132681,-9474.636058,-536.266849
6342.867524,-4071.132681,-9030.512492,-995.924147
6342.867846,-3552.988522,-9030.512492,-689.485948
6342.868169,-4071.132681,-8438.347739,-919.314598
6342.868491,-3330.926739,-8438.347739,-612.876398
6342.868814,-3627.009116,-8290.306550,-229.828649
6342.869136,-2590.720797,-8660.409521,-842.705048
6342.869459,-3034.844362,-8956.491898,-153.219100
6342.869782,-2664.741391,-9326.594869,0.000000
6342.870104,-3034.844362,-9622.677246,612.876398
6342.870427,-3108.864956,-9252.574275,-153.219100
6342.870749,-3404.947333,-9548.656652,306.438199
6342.871072,-3404.947333,-9474.636058,536.266849
6342.871394,-3849.070898,-9400.615463,0.000000
6342.871717,-3701.029710,-9104.533087,0.000000
6342.872039,-3997.112087,-9104.533087,-459.657299
6342.872362,-4367.215058,-8660.409521,-689.485948
6342.872685,-3997.112087,-8808.450710,-995.924147
6342.873007,-4219.173869,-8142.265362,-536.266849
6342.873330,-3478.967927,-8808.450710,-842.705048
6342.873652,-3034.844362,-8734.430116,0.000000
6342.873975,-2886.803174,-8438.347739,76.609550
6342.874297,-2960.823768,-8512.368333,76.609550
6342.874620,-3108.864956,-9104.533087,995.924147
6342.874943,-2664.741391,-9252.574275,689.485948
6342.875265,-2442.679609,-9622.677246,536.266849
6342.875588,-3256.906145,-9474.636058,1149.143247
6342.875910,-3256.906145,-9474.636058,612.876398
6342.876233,-3034.844362,-9252.574275,153.219100
6342.876555,-2516.700203,-8808.450710,383.047749
6342.876878,-3552.988522,-8586.388927,0.000000
6342.877200,-4219.173869,-8438.347739,612.876398
6342.877523,-4145.153275,-8438.347739,229.828649
6342.877846,-3775.050304,-8586.388927,536.266849
6342.878168,-3923.091493,-7846.182985,919.314598
6342.878491,-3701.029710,-7698.141797,842.705048
6342.878813,-3923.091493,-7994.224174,612.876398
6342.879136,-3256.906145,-8734.430116,0.000000
6342.879458,-3256.906145,-9474.636058,76.609550
6342.879781,-3627.009116,-9400.615463,842.705048
6342.880103,-3849.070898,-8956.491898,1915.238745
6342.880426,-2590.720797,-9030.512492,1685.410096
6342.880749,-2590.720797,-9252.574275,1838.629195
6342.881071,-3478.967927,-8734.430116,2068.457845
6342.881394,-4219.173869,-8512.368333,766.095498
6342.881716,-4145.153275,-8586.388927,612.876398
6342.882039,-3701.029710,-8438.347739,0.000000
6342.882361,-3997.112087,-8364.327145,0.000000
6342.882684,-4219.173869,-7846.182985,0.000000
6342.883006,-3923.091493,-8142.265362,-689.485948
6342.883329,-3701.029710,-8586.388927,76.609550
6342.883652,-3478.967927,-8882.471304,612.876398
6342.883974,-3404.947333,-9326.594869,459.657299
6342.884297,-3034.844362,-8734.430116,995.924147
6342.884619,-3330.926739,-8882.471304,1532.190996
6342.884942,-3552.988522,-9326.594869,1225.752797
6342.885264,-3552.988522,-9474.636058,1149.143247
6342.885587,-4071.132681,-9252.574275,0.000000
6342.885909,-4145.153275,-8734.430116,76.609550
6342.886232,-3404.947333,-9252.574275,0.000000
6342.886555,-3478.967927,-8734.430116,-612.876398
6342.886877,-3108.864956,-8364.327145,-689.485948
6342.887200,-3182.885551,-8660.409521,-536.266849
6342.887522,-3182.885551,-8808.450710,76.609550
6342.887845,-2886.803174,-9030.512492,1532.190996
6342.888167,-3034.844362,-8734.430116,1149.143247
6342.888490,-3404.947333,-8364.327145,1685.410096
6342.888813,-3701.029710,-8882.471304,1455.581446
6342.889135,-3849.070898,-9252.574275,612.876398
6342.889458,-4441.235652,-9400.615463,-536.266849
6342.889780,-4737.318029,-9252.574275,-459.657299
6342.890103,-4885.359217,-9252.574275,-383.047749
6342.890425,-4071.132681,-9326.594869,153.219100
6342.890748,-3552.988522,-8734.430116,-995.924147
6342.891070,-3627.009116,-8586.388927,-842.705048
6342.891393,-3330.926739,-9104.533087,-842.705048
6342.891716,-2664.741391,-9030.512492,76.609550
6342.892038,-2368.659014,-9104.533087,383.047749
6342.892361,-2072.576638,-8586.388927,1149.143247
6342.892683,-3330.926739,-8734.430116,2068.457845
6342.893006,-2960.823768,-9474.636058,1838.629195
6342.893328,-3108.864956,-9696.697840,919.314598
6342.893651,-3701.029710,-9548.656652,229.828649
6342.893973,-3923.091493,-9400.615463,919.314598
6342.894296,-4515.256246,-9030.512492,842.705048
6342.894619,-3997.112087,-8734.430116,76.609550
6342.894941,-3849.070898,-8586.388927,-306.438199
6342.895264,-3997.112087,-8438.347739,-689.485948
6342.895586,-3701.029710,-8438.347739,-1149.143247
6342.895909,-3182.885551,-7254.018232,0.000000
6342.896231,-2590.720797,-8438.347739,76.609550
6342.896554,-2812.782580,-8808.450710,229.828649
6342.896876,-2590.720797,-9252.574275,536.266849
6342.897199,-2812.782580,-9030.512492,919.314598
6342.897522,-2516.700203,-9696.697840,1685.410096
6342.897844,-2590.720797,-9474.636058,1378.971896
6342.898167,-2368.659014,-9844.739029,689.485948
6342.898489,-2812.782580,-10066.800811,842.705048
6342.898812,-2960.823768,-9548.656652,536.266849
6342.899134,-3256.906145,-9400.615463,306.438199
6342.899457,-3404.947333,-8882.471304,459.657299
6342.899779,-3627.009116,-8216.285956,0.000000
6342.900102,-3775.050304,-8068.244768,0.000000
6342.900425,-4441.235652,-7031.956449,-612.876398
6342.900747,-3701.029710,-8068.244768,-995.924147
6342.901070,-3552.988522,-7994.224174,-689.485948
6342.901392,-3478.967927,-8808.450710,0.000000
6342.901715,-3552.988522,-8808.450710,306.438199
6342.902037,-2960.823768,-9030.512492,1532.190996
6342.902360,-2812.782580,-9474.636058,689.485948
6342.902683,-2590.720797,-9918.759623,536.266849
6342.903005,-3108.864956,-9252.574275,919.314598
6342.903328,-3256.906145,-9474.636058,995.924147
6342.903650,-3256.906145,-9030.512492,612.876398
6342.903973,-3256.906145,-9030.512492,76.609550
6342.904295,-3923.091493,-8660.409521,-383.047749
6342.904618,-4219.173869,-8808.450710,-76.609550
6342.904940,-4663.297435,-7698.141797,-612.876398
6342.905263,-4293.194464,-7772.162391,-306.438199
6342.905586,-4145.153275,-8438.347739,-229.828649
6342.905908,-4071.132681,-8216.285956,-229.828649
6342.906231,-3775.050304,-8512.368333,0.000000
6342.906553,-3775.050304,-8808.450710,0.000000
6342.906876,-3478.967927,-8808.450710,229.828649
6342.907198,-3108.864956,-9252.574275,-229.828649
6342.907521,-3182.885551,-9252.574275,536.266849
6342.907843,-3701.029710,-9696.697840,536.266849
6342.908166,-3775.050304,-9474.636058,0.000000
6342.908489,-3701.029710,-9844.739029,-229.828649
6342.908811,-3997.112087,-9474.636058,-306.438199
6342.909134,-3849.070898,-9400.615463,-229.828649
6342.909456,-4071.132681,-8660.409521,-536.266849
6342.909779,-3701.029710,-8364.327145,-689.485948
6342.910101,-3775.050304,-8142.265362,-612.876398
6342.910424,-3701.029710,-8364.327145,-612.876398
6342.910746,-3627.009116,-8512.368333,-536.266849
6342.911069,-3256.906145,-8512.368333,-383.047749
6342.911392,-3108.864956,-8882.471304,-306.438199
6342.911714,-2812.782580,-9030.512492,689.485948
6342.912037,-2812.782580,-9178.553681,229.828649
6342.912359,-2664.741391,-9622.677246,0.000000
6342.912682,-2516.700203,-9622.677246,76.609550
6342.913004,-2886.803174,-9770.718434,229.828649
6342.913327,-2812.782580,-9770.718434,383.047749
6342.913649,-3034.844362,-9474.636058,229.828649
6342.913972,-3108.864956,-9252.574275,-459.657299
6342.914295,-3330.926739,-9104.533087,0.000000
6342.914617,-3034.844362,-8808.450710,-383.047749
6342.914940,-3034.844362,-8734.430116,-306.438199
6342.915262,-2960.823768,-8290.306550,-689.485948
6342.915585,-3256.906145,-8364.327145,-306.438199
6342.915907,-3256.906145,-8660.409521,-229.828649
6342.916230,-3330.926739,-8734.430116,153.219100
6342.916553,-2960.823768,-9030.512492,306.438199
6342.916875,-3182.885551,-9252.574275,766.095498
6342.917198,-3256.906145,-9548.656652,766.095498
6342.917520,-3552.988522,-9400.615463,536.266849
6342.917843,-3701.029710,-9474.636058,229.828649
6342.918165,-4145.153275,-9252.574275,0.000000
6342.918488,-3775.050304,-9252.574275,0.000000
6342.918810,-3849.070898,-8512.368333,229.828649
6342.919133,-4219.173869,-8364.327145,153.219100
6342.919456,-3552.988522,-8586.388927,153.219100
6342.919778,-2812.782580,-8586.388927,229.828649
6342.920101,-3108.864956,-8586.388927,306.438199
6342.920423,-3256.906145,-8660.409521,842.705048
6342.920746,-3256.906145,-8660.409521,919.314598
6342.921068,-3330.926739,-9104.533087,1072.533697
6342.921391,-3330.926739,-8956.491898,383.047749
6342.921713,-4367.215058,-8956.491898,842.705048
6342.922036,-3627.009116,-9252.574275,689.485948
6342.922359,-3627.009116,-9178.553681,0.000000
6342.922681,-4071.132681,-9104.533087,306.438199
6342.923004,-3775.050304,-9252.574275,0.000000
6342.923326,-3849.070898,-9030.512492,459.657299
6342.923649,-3256.906145,-8586.388927,383.047749
6342.923971,-3182.885551,-8882.471304,766.095498
6342.924294,-3404.947333,-8660.409521,383.047749
6342.924616,-3256.906145,-8438.347739,459.657299
6342.924939,-3256.906145,-9030.512492,766.095498
6342.925262,-3478.967927,-8882.471304,536.266849
6342.925584,-3330.926739,-9178.553681,766.095498
6342.925907,-3478.967927,-8956.491898,1149.143247
6342.926229,-3034.844362,-9030.512492,459.657299
6342.926552,-3182.885551,-9326.594869,842.705048
6342.926874,-3256.906145,-9474.636058,459.657299
6342.927197,-3849.070898,-9178.553681,995.924147
6342.927519,-4071.132681,-8956.491898,919.314598
6342.927842,-4145.153275,-9030.512492,919.314598
6342.928165,-4219.173869,-8364.327145,383.047749
6342.928487,-4441.235652,-8438.347739,1072.533697
6342.928810,-4515.256246,-8438.347739,76.609550
6342.929132,-4663.297435,-8438.347739,536.266849
6342.929455,-4145.153275,-8142.265362,0.000000
6342.929777,-3627.009116,-8438.347739,76.609550
6342.930100,-2960.823768,-8586.388927,76.609550
6342.930423,-2368.659014,-8734.430116,383.047749
6342.930745,-1776.494261,-8956.491898,995.924147
6342.931068,-2294.638420,-9030.512492,919.314598
6342.931390,-1924.535449,-9622.677246,1532.190996
6342.931713,-2072.576638,-9474.636058,1455.581446
6342.932035,-2294.638420,-9844.739029,1455.581446
6342.932358,-2516.700203,-9622.677246,919.314598
6342.932681,-3108.864956,-9400.615463,766.095498
6342.933003,-3701.029710,-8956.491898,1149.143247
6342.933326,-3923.091493,-8808.450710,-229.828649
6342.933648,-3849.070898,-8734.430116,-842.705048
6342.933971,-4293.194464,-8068.244768,-612.876398
6342.934294,-4441.235652,-8068.244768,0.000000
6342.934616,-3923.091493,-8142.265362,-306.438199
6342.934939,-4145.153275,-7994.224174,0.000000
6342.935261,-4293.194464,-8586.388927,-383.047749
6342.935584,-3849.070898,-9178.553681,76.609550
6342.935906,-3997.112087,-8956.491898,229.828649
6342.936229,-3330.926739,-9326.594869,306.438199
6342.936552,-4219.173869,-9400.615463,1149.143247
6342.936874,-4071.132681,-9622.677246,1378.971896
6342.937197,-4293.194464,-9622.677246,919.314598
6342.937519,-4589.276840,-9400.615463,536.266849
6342.937842,-5181.441594,-8882.471304,153.219100
6342.938164,-5329.482782,-8882.471304,-842.705048
6342.938487,-4811.338623,-8290.306550,-306.438199
6342.938810,-5255.462188,-8068.244768,-306.438199
6342.939132,-5255.462188,-7994.224174,0.000000
6342.939455,-4811.338623,-7994.224174,-306.438199
6342.939777,-4589.276840,-7772.162391,76.609550
6342.940100,-4293.194464,-8142.265362,383.047749
6342.940422,-3701.029710,-9030.512492,383.047749
6342.940745,-4071.132681,-9252.574275,1149.143247
6342.941068,-4145.153275,-8956.491898,1378.971896
6342.941390,-3701.029710,-9400.615463,1149.143247
6342.941713,-3849.070898,-9622.677246,1532.190996
6342.942035,-3997.112087,-9326.594869,1455.581446
6342.942358,-3775.050304,-9326.594869,1378.971896
6342.942680,-4663.297435,-8882.471304,1072.533697
6342.943003,-4219.173869,-8660.409521,1302.362347
6342.943326,-4145.153275,-8808.450710,1072.533697
6342.943648,-4219.173869,-8068.244768,1072.533697
6342.943971,-4293.194464,-7920.203579,919.314598
6342.944293,-4589.276840,-7698.141797,766.095498
6342.944616,-4663.297435,-7920.203579,842.705048
6342.944938,-4441.235652,-7698.141797,842.705048
6342.945261,-3552.988522,-8216.285956,1915.238745
6342.945584,-4219.173869,-8068.244768,1608.800546
6342.945906,-4219.173869,-9030.512492,2298.286494
6342.946229,-3849.070898,-8734.430116,1762.019645
6342.946551,-3627.009116,-9104.533087,2068.457845
6342.946874,-3775.050304,-8956.491898,1378.971896
6342.947196,-3923.091493,-8438.347739,1685.410096
6342.947519,-3182.885551,-8660.409521,1149.143247
6342.947842,-3404.947333,-8068.244768,1608.800546
6342.948164,-3256.906145,-8808.450710,1225.752797
6342.948487,-3256.906145,-8512.368333,1072.533697
6342.948809,-3108.864956,-8364.327145,1072.533697
6342.949132,-2960.823768,-8660.409521,1149.143247
6342.949454,-2960.823768,-8660.409521,1762.019645
6342.949777,-2664.741391,-8808.450710,1685.410096
6342.950100,-2294.638420,-8882.471304,1915.238745
6342.950422,-2960.823768,-8882.471304,2221.676944
6342.950745,-3108.864956,-9252.574275,1762.019645
6342.951067,-3108.864956,-9252.574275,1302.362347
6342.951390,-3478.967927,-9104.533087,1225.752797
6342.951712,-3627.009116,-9326.594869,1149.143247
6342.952035,-3478.967927,-9252.574275,1072.533697
6342.952358,-3701.029710,-9104.533087,842.705048
6342.952680,-4145.153275,-8290.306550,1149.143247
6342.953003,-4441.235652,-8364.327145,459.657299
6342.953325,-4293.194464,-8290.306550,306.438199
6342.953648,-4071.132681,-8438.347739,0.000000
6342.953970,-4219.173869,-8290.306550,229.828649
6342.954293,-4293.194464,-8216.285956,383.047749
6342.954616,-4219.173869,-8882.471304,306.438199
6342.954938,-4441.235652,-8438.347739,459.657299
6342.955261,-4219.173869,-8734.430116,459.657299
6342.955583,-4515.256246,-8734.430116,229.828649
6342.955906,-4589.276840,-8956.491898,612.876398
6342.956228,-4737.318029,-8956.491898,459.657299
6342.956551,-4811.338623,-8956.491898,919.314598
6342.956874,-4811.338623,-8068.244768,76.609550
6342.957196,-4515.256246,-9178.553681,-383.047749
6342.957519,-4811.338623,-8438.347739,-306.438199
6342.957841,-4811.338623,-8364.327145,-995.924147
6342.958164,-4515.256246,-8660.409521,-766.095498
6342.958486,-4515.256246,-8808.450710,-229.828649
6342.958809,-3997.112087,-8882.471304,0.000000
6342.959132,-3404.947333,-9178.553681,459.657299
6342.959454,-3034.844362,-9252.574275,536.266849
6342.959777,-3627.009116,-8808.450710,536.266849
6342.960099,-3552.988522,-8956.491898,1302.362347
6342.960422,-4293.194464,-9104.533087,842.705048
6342.960744,-4293.194464,-9400.615463,612.876398
6342.961067,-4145.153275,-9104.533087,153.219100
6342.961390,-4293.194464,-8956.491898,0.000000
6342.961712,-4441.235652,-8438.347739,76.609550
6342.962035,-4367.215058,-8438.347739,306.438199
6342.962357,-3849.070898,-8512.368333,0.000000
6342.962680,-3627.009116,-8956.491898,-229.828649
6342.963002,-3627.009116,-8142.265362,76.609550
6342.963325,-3627.009116,-8290.306550,842.705048
6342.963648,-3478.967927,-8364.327145,536.266849
6342.963970,-3256.906145,-9104.533087,612.876398
6342.964293,-3256.906145,-8956.491898,536.266849
6342.964615,-3404.947333,-8956.491898,1149.143247
6342.964938,-3256.906145,-9178.553681,1149.143247
6342.965260,-3034.844362,-9400.615463,919.314598
6342.965583,-3478.967927,-9326.594869,1149.143247
6342.965906,-3701.029710,-9030.512492,1072.533697
6342.966228,-4071.132681,-8512.368333,995.924147
6342.966551,-3997.112087,-8512.368333,1149.143247
6342.966873,-4071.132681,-8290.306550,995.924147
6342.967196,-4589.276840,-7772.162391,1149.143247
6342.967518,-4219.173869,-8364.327145,383.047749
6342.967841,-4145.153275,-7846.182985,383.047749
6342.968164,-3849.070898,-8512.368333,689.485948
6342.968486,-3849.070898,-8364.327145,919.314598
6342.968809,-3775.050304,-8438.347739,1455.581446
6342.969131,-3034.844362,-8808.450710,612.876398
6342.969454,-2960.823768,-8882.471304,1302.362347
6342.969776,-3182.885551,-8956.491898,1608.800546
6342.970099,-3108.864956,-9474.636058,1838.629195
6342.970422,-3330.926739,-9400.615463,2145.067394
6342.970744,-3552.988522,-8956.491898,1838.629195
6342.971067,-3997.112087,-9104.533087,1762.019645
6342.971389,-4589.276840,-8216.285956,1915.238745
6342.971712,-3923.091493,-8438.347739,153.219100
6342.972034,-4885.359217,-8142.265362,612.876398
6342.972357,-5329.482782,-8216.285956,766.095498
6342.972680,-4737.318029,-8216.285956,612.876398
6342.973002,-4071.132681,-7772.162391,153.219100
6342.973325,-4515.256246,-7994.224174,995.924147
6342.973647,-5773.606348,-8216.285956,919.314598
6342.973970,-4145.153275,-8734.430116,1072.533697
6342.974292,-3627.009116,-9178.553681,766.095498
6342.974615,-3701.029710,-8660.409521,919.314598
6342.974938,-4145.153275,-9252.574275,1532.190996
6342.975260,-4441.235652,-9252.574275,1532.190996
6342.975583,-4071.132681,-9622.677246,1608.800546
6342.975905,-3256.906145,-9770.718434,919.314598
6342.976228,-3627.009116,-8882.471304,1762.019645
6342.976550,-4589.276840,-8660.409521,2145.067394
6342.976873,-3923.091493,-8438.347739,1149.143247
6342.977196,-3478.967927,-8512.368333,0.000000
6342.977518,-4219.173869,-8586.388927,0.000000
6342.977841,-4441.235652,-8142.265362,229.828649
6342.978163,-4145.153275,-8142.265362,153.219100
6342.978486,-3256.906145,-8216.285956,76.609550
6342.978808,-3108.864956,-9030.512492,689.485948
6342.979131,-3404.947333,-8956.491898,1455.581446
6342.979454,-3404.947333,-8734.430116,1378.971896
6342.979776,-3034.844362,-9474.636058,1225.752797
6342.980099,-3404.947333,-9400.615463,1072.533697
6342.980421,-3552.988522,-9030.512492,919.314598
6342.980744,-3478.967927,-8438.347739,1608.800546
6342.981066,-3997.112087,-8364.327145,1072.533697
6342.981389,-3849.070898,-9252.574275,76.609550
6342.981712,-3923.091493,-8956.491898,-612.876398
6342.982034,-3404.947333,-8512.368333,-766.095498
6342.982357,-3478.967927,-8364.327145,-536.266849
6342.982679,-3775.050304,-8438.347739,0.000000
6342.983002,-3627.009116,-8660.409521,-612.876398
6342.983324,-3330.926739,-8290.306550,229.828649
6342.983647,-3775.050304,-8660.409521,612.876398
6342.983970,-4219.173869,-9030.512492,1455.581446
6342.984292,-4219.173869,-8660.409521,919.314598
6342.984615,-4219.173869,-9030.512492,536.266849
6342.984937,-4737.318029,-8882.471304,76.609550
6342.985260,-5329.482782,-8660.409521,0.000000
6342.985582,-4367.215058,-8660.409521,-153.219100
6342.985905,-3627.009116,-9104.533087,-842.705048
6342.986228,-3923.091493,-8660.409521,-383.047749
6342.986550,-3478.967927,-8882.471304,76.609550
6342.986873,-3034.844362,-8808.450710,612.876398
6342.987195,-2590.720797,-9400.615463,1072.533697
6342.987518,-3256.906145,-8512.368333,1532.190996
6342.987840,-3701.029710,-8660.409521,1915.238745
6342.988163,-3997.112087,-8956.491898,1455.581446
6342.988486,-4071.132681,-8956.491898,1225.752797
6342.988808,-4441.235652,-9326.594869,383.047749
6342.989131,-5329.482782,-9030.512492,459.657299
6342.989453,-5403.503377,-8956.491898,306.438199
6342.989776,-4441.235652,-8882.471304,-383.047749
6342.990098,-4293.194464,-7772.162391,0.000000
6342.990421,-4441.235652,-7994.224174,76.609550
6342.990744,-4441.235652,-8142.265362,919.314598
6342.991066,-3552.988522,-8068.244768,536.266849
6342.991389,-3256.906145,-8290.306550,612.876398
6342.991711,-3923.091493,-8882.471304,919.314598
6342.992034,-4367.215058,-9030.512492,2374.896044
6342.992356,-2960.823768,-8586.388927,1302.362347
6342.992679,-3404.947333,-9548.656652,1838.629195
6342.993002,-4737.318029,-8734.430116,1685.410096
6342.993324,-4737.318029,-9104.533087,1532.190996
6342.993647,-4515.256246,-8734.430116,919.314598
6342.993969,-4589.276840,-8586.388927,842.705048
6342.994292,-4737.318029,-8216.285956,612.876398
6342.994614,-4737.318029,-7624.121203,919.314598
6342.994937,-4663.297435,-7402.059420,842.705048
6342.995260,-4145.153275,-7476.080014,383.047749
6342.995582,-4219.173869,-7698.141797,536.266849
6342.995905,-4293.194464,-8068.244768,766.095498
6342.996227,-3923.091493,-7994.224174,919.314598
6342.996550,-3478.967927,-8660.409521,1302.362347
6342.996872,-3552.988522,-9030.512492,995.924147
6342.997195,-3478.967927,-9178.553681,2451.505594
6342.997518,-3552.988522,-9030.512492,1685.410096
6342.997840,-3108.864956,-9252.574275,1762.019645
6342.998163,-3627.009116,-9326.594869,1991.848295
6342.998485,-3849.070898,-9030.512492,1608.800546
6342.998808,-4071.132681,-8586.388927,1455.581446
6342.999130,-4145.153275,-8364.327145,995.924147
6342.999453,-3627.009116,-8512.368333,383.047749
6342.999776,-4071.132681,-8142.265362,689.485948
6343.000098,-3775.050304,-8216.285956,842.705048
6343.000421,-3701.029710,-8068.244768,306.438199
6343.000743,-4071.132681,-8364.327145,919.314598
6343.001066,-4219.173869,-8734.430116,689.485948
6343.001388,-3775.050304,-8438.347739,1302.362347
6343.001711,-3330.926739,-9030.512492,1532.190996
6343.002034,-2738.761985,-9400.615463,1149.143247
6343.002356,-3997.112087,-8882.471304,1455.581446
6343.002679,-3330.926739,-8956.491898,1149.143247
6343.003001,-3478.967927,-9770.718434,1378.971896
6343.003324,-3478.967927,-9326.594869,995.924147
6343.003646,-3552.988522,-9622.677246,1302.362347
6343.003969,-4071.132681,-9252.574275,1149.143247
6343.004292,-3849.070898,-9400.615463,1072.533697
6343.004614,-3923.091493,-8660.409521,689.485948
6343.004937,-4737.318029,-8364.327145,919.314598
6343.005259,-4367.215058,-8068.244768,383.047749
6343.005582,-4071.132681,-8364.327145,459.657299
6343.005904,-4071.132681,-8364.327145,459.657299
6343.006227,-3923.091493,-8438.347739,306.438199
6343.006550,-3997.112087,-8216.285956,842.705048
6343.006872,-3849.070898,-8734.430116,0.000000
6343.007195,-4071.132681,-8956.491898,0.000000
6343.007517,-3478.967927,-9770.718434,766.095498
6343.007840,-3627.009116,-9252.574275,766.095498
6343.008162,-3775.050304,-9178.553681,1225.752797
6343.008485,-3849.070898,-9252.574275,1149.143247
6343.008808,-4219.173869,-9178.553681,612.876398
6343.009130,-3775.050304,-8882.471304,76.609550
6343.009453,-4219.173869,-8734.430116,153.219100
6343.009775,-4293.194464,-7920.203579,689.485948
6343.010098,-4219.173869,-8142.265362,383.047749
6343.010420,-4293.194464,-8142.265362,229.828649
6343.010743,-4219.173869,-8068.244768,0.000000
6343.011066,-4145.153275,-7994.224174,229.828649
6343.011388,-3849.070898,-7920.203579,153.219100
6343.011711,-3701.029710,-7994.224174,306.438199
6343.012033,-3478.967927,-9178.553681,536.266849
6343.012356,-3923.091493,-9104.533087,1072.533697
6343.012678,-3923.091493,-9104.533087,1302.362347
6343.013001,-3849.070898,-9104.533087,1072.533697
6343.013324,-3701.029710,-9252.574275,766.095498
6343.013646,-3923.091493,-8882.471304,0.000000
6343.013969,-3627.009116,-8956.491898,612.876398
6343.014291,-4441.235652,-8142.265362,153.219100
6343.014614,-4071.132681,-8290.306550,306.438199
6343.014936,-3997.112087,-8512.368333,306.438199
6343.015259,-3849.070898,-8364.327145,153.219100
6343.015582,-4071.132681,-8586.388927,229.828649
6343.015904,-3997.112087,-8512.368333,459.657299
6343.016227,-3552.988522,-8586.388927,0.000000
6343.016549,-3404.947333,-9326.594869,0.000000
6343.016872,-3923.091493,-9104.533087,919.314598
6343.017194,-3849.070898,-9104.533087,612.876398
6343.017517,-3701.029710,-9474.636058,766.095498
6343.017840,-3849.070898,-9326.594869,1225.752797
6343.018162,-3849.070898,-9474.636058,1225.752797
6343.018485,-4293.194464,-8882.471304,842.705048
6343.018807,-4145.153275,-9178.553681,766.095498
6343.019130,-3849.070898,-8734.430116,76.609550
6343.019452,-3627.009116,-8956.491898,0.000000
6343.019775,-3849.070898,-8512.368333,306.438199
6343.020098,-3923.091493,-8660.409521,229.828649
6343.020420,-4071.132681,-8586.388927,689.485948
6343.020743,-3182.885551,-9178.553681,-383.047749
6343.021065,-3849.070898,-8068.244768,919.314598
6343.021388,-4367.215058,-8216.285956,1302.362347
6343.021710,-4219.173869,-8882.471304,842.705048
6343.022033,-4367.215058,-8882.471304,1149.143247
6343.022356,-4737.318029,-8956.491898,612.876398
6343.022678,-4811.338623,-8660.409521,689.485948
6343.023001,-4737.318029,-8586.388927,919.314598
6343.023323,-4293.194464,-8586.388927,229.828649
6343.023646,-4071.132681,-8734.430116,919.314598
6343.023968,-4219.173869,-8586.388927,919.314598
6343.024291,-3997.112087,-8216.285956,919.314598
6343.024614,-3997.112087,-8142.265362,995.924147
6343.024936,-3997.112087,-8512.368333,842.705048
6343.025259,-4071.132681,-8438.347739,1838.629195
6343.025581,-3701.029710,-8586.388927,766.095498
6343.025904,-3404.947333,-8364.327145,1378.971896
6343.026226,-3330.926739,-9252.574275,995.924147
6343.026549,-3849.070898,-8882.471304,1762.019645
6343.026872,-3552.988522,-9252.574275,1838.629195
6343.027194,-3478.967927,-8808.450710,1532.190996
6343.027517,-3923.091493,-9252.574275,1762.019645
6343.027839,-4441.235652,-8438.347739,2374.896044
6343.028162,-5033.400406,-8216.285956,1532.190996
6343.028484,-4145.153275,-8586.388927,1302.362347
6343.028807,-4293.194464,-8660.409521,229.828649
6343.029129,-4663.297435,-7846.182985,229.828649
6343.029452,-4589.276840,-7994.224174,459.657299
6343.029775,-3923.091493,-8290.306550,689.485948
6343.030097,-3404.947333,-8586.388927,0.000000
6343.030420,-3627.009116,-8290.306550,1225.752797
6343.030742,-3701.029710,-8068.244768,1838.629195
6343.031065,-3034.844362,-9030.512492,1302.362347
6343.031387,-2886.803174,-9104.533087,1225.752797
6343.031710,-2960.823768,-9252.574275,1149.143247
6343.032032,-3478.967927,-9030.512492,766.095498
6343.032355,-3108.864956,-8882.471304,1532.190996
6343.032677,-3108.864956,-8882.471304,0.000000
6343.033000,-2738.761985,-8956.491898,76.609550
6343.033323,-2442.679609,-8734.430116,-612.876398
6343.033645,-2664.741391,-8586.388927,-306.438199
6343.033968,-2590.720797,-8956.491898,-306.438199
6343.034290,-2516.700203,-8956.491898,-306.438199
6343.034613,-1998.556043,-9178.553681,-306.438199
6343.034935,-1554.432478,-9252.574275,0.000000
6343.035258,-1702.473667,-9104.533087,536.266849
6343.035580,-2146.597232,-9030.512492,459.657299
6343.035903,-2294.638420,-9474.636058,76.609550
6343.036225,-2516.700203,-9844.739029,0.000000
6343.036548,-2960.823768,-10140.821405,-229.828649
6343.036871,-3330.926739,-9548.656652,0.000000
6343.037193,-3404.947333,-9326.594869,-919.314598
6343.037516,-4515.256246,-9178.553681,-536.266849
6343.037838,-4219.173869,-9030.512492,-1225.752797
6343.038161,-4737.318029,-8808.450710,-1072.533697
6343.038483,-4441.235652,-8808.450710,-1532.190996
6343.038806,-4737.318029,-8290.306550,-1455.581446
6343.039128,-4219.173869,-8438.347739,-1455.581446
6343.039451,-3997.112087,-8660.409521,-1072.533697
6343.039774,-3552.988522,-9622.677246,-919.314598
6343.040096,-3552.988522,-9474.636058,-383.047749
6343.040419,-3849.070898,-9400.615463,-306.438199
6343.040741,-3552.988522,-9696.697840,-536.266849
6343.041064,-3775.050304,-9622.677246,0.000000
6343.041386,-3775.050304,-9844.739029,0.000000
6343.041709,-3627.009116,-9548.656652,-459.657299
6343.042031,-3997.112087,-9400.615463,-306.438199
6343.042354,-4145.153275,-9474.636058,-1072.533697
6343.042676,-3701.029710,-9326.594869,-842.705048
6343.042999,-4219.173869,-8956.491898,-766.095498
6343.043322,-4515.256246,-8660.409521,-383.047749
6343.043644,-4293.194464,-8734.430116,-689.485948
6343.043967,-4071.132681,-8068.244768,-383.047749
6343.044289,-3701.029710,-8660.409521,-229.828649
6343.044612,-3775.050304,-8216.285956,0.000000
6343.044934,-3923.091493,-8216.285956,229.828649
6343.045257,-3182.885551,-8956.491898,383.047749
6343.045579,-3404.947333,-9030.512492,536.266849
6343.045902,-3478.967927,-9104.533087,766.095498
6343.046224,-3404.947333,-9326.594869,919.314598
6343.046547,-3256.906145,-9104.533087,995.924147
6343.046870,-3256.906145,-8882.471304,689.485948
6343.047192,-3552.988522,-8808.450710,383.047749
6343.047515,-3627.009116,-7772.162391,766.095498
6343.047837,-3256.906145,-8586.388927,766.095498
6343.048160,-3330.926739,-8068.244768,383.047749
6343.048482,-3108.864956,-8216.285956,842.705048
6343.048805,-3256.906145,-8142.265362,536.266849
6343.049127,-2664.741391,-8438.347739,766.095498
6343.049450,-2960.823768,-8660.409521,459.657299
6343.049773,-2812.782580,-8660.409521,1225.752797
6343.050095,-2442.679609,-9030.512492,689.485948
6343.050418,-2738.761985,-9252.574275,1302.362347
6343.050740,-3034.844362,-9104.533087,1302.362347
6343.051063,-2590.720797,-9252.574275,1378.971896
6343.051385,-2516.700203,-9252.574275,1455.581446
6343.051708,-2664.741391,-9622.677246,1149.143247
6343.052030,-2664.741391,-9400.615463,689.485948
6343.052353,-2590.720797,-8882.471304,1149.143247
6343.052675,-2886.803174,-8882.471304,1225.752797
6343.052998,-3108.864956,-8734.430116,1072.533697
6343.053321,-2960.823768,-8882.471304,1455.581446
6343.053643,-2664.741391,-8808.450710,1072.533697
6343.053966,-3108.864956,-8438.347739,689.485948
6343.054288,-4441.235652,-8660.409521,1302.362347
6343.054611,-3404.947333,-8956.491898,1072.533697
6343.054933,-3330.926739,-8882.471304,689.485948
6343.055256,-3627.009116,-8882.471304,536.266849
6343.055578,-3552.988522,-9104.533087,1149.143247
6343.055901,-3627.009116,-8808.450710,995.924147
6343.056223,-3330.926739,-8882.471304,536.266849
6343.056546,-3775.050304,-9178.553681,459.657299
6343.056869,-3701.029710,-9548.656652,0.000000
6343.057191,-3997.112087,-9030.512492,153.219100
6343.057514,-3923.091493,-8734.430116,76.609550
6343.057836,-4145.153275,-8882.471304,0.000000
6343.058159,-4145.153275,-8734.430116,0.000000
6343.058481,-3997.112087,-8882.471304,-383.047749
6343.058804,-3997.112087,-8512.368333,-459.657299
6343.059126,-3775.050304,-8068.244768,0.000000
6343.059449,-3552.988522,-8882.471304,0.000000
6343.059772,-3849.070898,-9252.574275,0.000000
6343.060094,-3997.112087,-8882.471304,-153.219100
6343.060417,-3627.009116,-9400.615463,-306.438199
6343.060739,-3701.029710,-8882.471304,-229.828649
6343.061062,-3627.009116,-9252.574275,0.000000
6343.061384,-3182.885551,-9770.718434,0.000000
6343.061707,-3701.029710,-8660.409521,-995.924147
6343.062029,-3627.009116,-9400.615463,-536.266849
6343.062352,-3701.029710,-8734.430116,-612.876398
6343.062674,-3775.050304,-8808.450710,-306.438199
6343.062997,-3627.009116,-8882.471304,-842.705048
6343.063320,-3552.988522,-8660.409521,229.828649
6343.063642,-3627.009116,-7846.182985,-689.485948
6343.063965,-3256.906145,-9104.533087,-766.095498
6343.064287,-3256.906145,-8734.430116,-919.314598
6343.064610,-3108.864956,-9252.574275,0.000000
6343.064932,-3108.864956,-9326.594869,-306.438199
6343.065255,-3034.844362,-9104.533087,229.828649
6343.065577,-3330.926739,-8808.450710,-536.266849
6343.065900,-2960.823768,-9400.615463,0.000000
6343.066222,-3330.926739,-8808.450710,229.828649
6343.066545,-3627.009116,-8882.471304,-536.266849
6343.066868,-3849.070898,-9104.533087,0.000000
6343.067190,-3775.050304,-8734.430116,0.000000
6343.067513,-3034.844362,-8734.430116,-689.485948
6343.067835,-3701.029710,-8068.244768,-689.485948
6343.068158,-3478.967927,-9178.553681,0.000000
6343.068480,-3034.844362,-8290.306550,-383.047749
6343.068803,-2368.659014,-8734.430116,-766.095498
6343.069125,-3256.906145,-8808.450710,0.000000
6343.069448,-3701.029710,-9178.553681,689.485948
6343.069770,-3404.947333,-9400.615463,766.095498
6343.070093,-2738.761985,-9622.677246,0.000000
6343.070416,-2516.700203,-9178.553681,229.828649
6343.070738,-2960.823768,-8882.471304,612.876398
6343.071061,-3478.967927,-8882.471304,995.924147
6343.071383,-2960.823768,-9178.553681,383.047749
6343.071706,-3330.926739,-9252.574275,383.047749
6343.072028,-3997.112087,-8956.491898,995.924147
6343.072351,-4071.132681,-8438.347739,1608.800546
6343.072673,-3478.967927,-8068.244768,1072.533697
6343.072996,-3330.926739,-8364.327145,689.485948
6343.073319,-4071.132681,-9252.574275,-383.047749
6343.073641,-4737.318029,-8216.285956,459.657299
6343.073964,-3849.070898,-8364.327145,842.705048
6343.074286,-3552.988522,-8438.347739,766.095498
6343.074609,-3330.926739,-8660.409521,1072.533697
6343.074931,-3478.967927,-9030.512492,1225.752797
6343.075254,-3330.926739,-8660.409521,1225.752797
6343.075576,-3478.967927,-9178.553681,1072.533697
6343.075899,-3478.967927,-8956.491898,1378.971896
6343.076221,-3627.009116,-8808.450710,995.924147
6343.076544,-3478.967927,-8364.327145,919.314598
6343.076867,-3849.070898,-8882.471304,689.485948
6343.077189,-4219.173869,-8512.368333,536.266849
6343.077512,-4219.173869,-9030.512492,689.485948
6343.077834,-3478.967927,-8586.388927,0.000000
6343.078157,-3330.926739,-8586.388927,766.095498
6343.078479,-3997.112087,-8438.347739,153.219100
6343.078802,-3627.009116,-8660.409521,306.438199
6343.079124,-3404.947333,-8364.327145,153.219100
6343.079447,-2960.823768,-8956.491898,0.000000
6343.079769,-3330.926739,-8142.265362,536.266849
6343.080092,-3552.988522,-8734.430116,842.705048
6343.080415,-3034.844362,-9252.574275,0.000000
6343.080737,-2960.823768,-9548.656652,689.485948
6343.081060,-3330.926739,-9474.636058,689.485948
6343.081382,-3404.947333,-9326.594869,1378.971896
6343.081705,-3701.029710,-9030.512492,1072.533697
6343.082027,-3478.967927,-8882.471304,-229.828649
6343.082350,-4293.194464,-8882.471304,-536.266849
6343.082672,-4515.256246,-8808.450710,-459.657299
6343.082995,-4441.235652,-8808.450710,-383.047749
6343.083318,-3775.050304,-8216.285956,0.000000
6343.083640,-3627.009116,-8512.368333,-689.485948
6343.083963,-3997.112087,-8216.285956,-383.047749
6343.084285,-3182.885551,-8956.491898,306.438199
6343.084608,-2664.741391,-8808.450710,229.828649
6343.084930,-2368.659014,-9326.594869,919.314598
6343.085253,-2738.761985,-9104.533087,1225.752797
6343.085575,-3108.864956,-9770.718434,995.924147
6343.085898,-3034.844362,-9696.697840,536.266849
6343.086220,-2960.823768,-9548.656652,0.000000
6343.086543,-3552.988522,-9474.636058,306.438199
6343.086866,-3849.070898,-9400.615463,689.485948
6343.087188,-3627.009116,-8364.327145,-306.438199
6343.087511,-3404.947333,-8808.450710,0.000000
6343.087833,-3552.988522,-8956.491898,-459.657299
6343.088156,-3775.050304,-8512.368333,-383.047749
6343.088478,-3404.947333,-8290.306550,-229.828649
6343.088801,-3256.906145,-8512.368333,0.000000
6343.089123,-2960.823768,-8956.491898,76.609550
6343.089446,-3256.906145,-8734.430116,536.266849
6343.089768,-3404.947333,-8808.450710,459.657299
6343.090091,-2960.823768,-9622.677246,536.266849
6343.090414,-2738.761985,-9622.677246,76.609550
6343.090736,-2886.803174,-9548.656652,612.876398
6343.091059,-2886.803174,-9474.636058,229.828649
6343.091381,-2664.741391,-8956.491898,612.876398
6343.091704,-2516.700203,-9548.656652,-459.657299
6343.092026,-3034.844362,-9178.553681,76.609550
6343.092349,-2960.823768,-9178.553681,306.438199
6343.092671,-3034.844362,-8660.409521,0.000000
6343.092994,-3330.926739,-9178.553681,306.438199
6343.093317,-3552.988522,-8808.450710,0.000000
6343.093639,-3404.947333,-7994.224174,0.000000
6343.093962,-3923.091493,-8512.368333,229.828649
6343.094284,-3775.050304,-8956.491898,-306.438199
6343.094607,-4293.194464,-7994.224174,-306.438199
6343.094929,-3775.050304,-8586.388927,536.266849
6343.095252,-3627.009116,-8660.409521,0.000000
6343.095574,-3552.988522,-8808.450710,0.000000
6343.095897,-3404.947333,-8808.450710,76.609550
6343.096219,-3108.864956,-8660.409521,536.266849
6343.096542,-3256.906145,-8586.388927,229.828649
6343.096865,-2664.741391,-9030.512492,383.047749
6343.097187,-3478.967927,-9178.553681,0.000000
6343.097510,-3182.885551,-8808.450710,0.000000
6343.097832,-3404.947333,-9030.512492,383.047749
6343.098155,-3849.070898,-9030.512492,459.657299
6343.098477,-3478.967927,-9252.574275,459.657299
6343.098800,-4219.173869,-8438.347739,536.266849
6343.099122,-4145.153275,-8734.430116,459.657299
6343.099445,-3701.029710,-8586.388927,0.000000
6343.099767,-3701.029710,-8512.368333,-459.657299
6343.100090,-3701.029710,-8734.430116,0.000000
6343.100413,-4071.132681,-8734.430116,-153.219100
6343.100735,-3923.091493,-8660.409521,0.000000
6343.101058,-3330.926739,-9178.553681,-1302.362347
6343.101380,-3775.050304,-8882.471304,-459.657299
6343.101703,-3849.070898,-8734.430116,-459.657299
6343.102025,-3552.988522,-9178.553681,0.000000
6343.102348,-3404.947333,-9326.594869,-229.828649
6343.102670,-3034.844362,-9622.677246,-459.657299
6343.102993,-3034.844362,-9326.594869,-459.657299
6343.103315,-2812.782580,-9474.636058,76.609550
6343.103638,-3108.864956,-9104.533087,0.000000
6343.103961,-2886.803174,-9252.574275,0.000000
6343.104283,-3108.864956,-9548.656652,-612.876398
6343.104606,-3256.906145,-9104.533087,-459.657299
6343.104928,-3182.885551,-9252.574275,-612.876398
6343.105251,-3478.967927,-9178.553681,-536.266849
6343.105573,-3182.885551,-9178.553681,-306.438199
6343.105896,-3034.844362,-8956.491898,0.000000
6343.106218,-2960.823768,-9030.512492,0.000000
6343.106541,-3478.967927,-8438.347739,536.266849
6343.106864,-3404.947333,-9030.512492,229.828649
6343.107186,-3552.988522,-9104.533087,0.000000
6343.107509,-3478.967927,-9400.615463,76.609550
6343.107831,-3775.050304,-9030.512492,383.047749
6343.108154,-3627.009116,-8586.388927,76.609550
6343.108476,-3849.070898,-8660.409521,-306.438199
6343.108799,-3330.926739,-8586.388927,-229.828649
6343.109121,-3330.926739,-9104.533087,306.438199
6343.109444,-3478.967927,-8660.409521,0.000000
6343.109766,-3478.967927,-8956.491898,383.047749
6343.110089,-3701.029710,-8660.409521,383.047749
6343.110412,-3478.967927,-8734.430116,306.438199
6343.110734,-3627.009116,-8956.491898,689.485948
6343.111057,-3256.906145,-8438.347739,612.876398
6343.111379,-3627.009116,-8586.388927,536.266849
6343.111702,-3627.009116,-8660.409521,536.266849
6343.112024,-3256.906145,-8882.471304,229.828649
6343.112347,-3182.885551,-8512.368333,995.924147
6343.112669,-3330.926739,-8512.368333,536.266849
6343.112992,-2886.803174,-9030.512492,1149.143247
6343.113314,-2664.741391,-9178.553681,459.657299
6343.113637,-2812.782580,-8660.409521,536.266849
6343.113960,-3108.864956,-9400.615463,766.095498
6343.114282,-3108.864956,-8882.471304,1149.143247
6343.114605,-2886.803174,-9104.533087,766.095498
6343.114927,-3182.885551,-8734.430116,383.047749
6343.115250,-3552.988522,-8882.471304,766.095498
6343.115572,-3478.967927,-8882.471304,536.266849
6343.115895,-3182.885551,-9252.574275,0.000000
6343.116217,-3701.029710,-8660.409521,612.876398
6343.116540,-3849.070898,-8956.491898,919.314598
6343.116863,-3997.112087,-8808.450710,459.657299
6343.117185,-3849.070898,-8808.450710,612.876398
6343.117508,-3627.009116,-8586.388927,612.876398
6343.117830,-4071.132681,-8882.471304,1072.533697
6343.118153,-4071.132681,-8734.430116,842.705048
6343.118475,-4145.153275,-8808.450710,536.266849
6343.118798,-3997.112087,-8808.450710,153.219100
6343.119120,-3997.112087,-8956.491898,306.438199
6343.119443,-3775.050304,-8956.491898,1149.143247
6343.119765,-3256.906145,-9030.512492,612.876398
6343.120088,-3034.844362,-8660.409521,689.485948
6343.120411,-3034.844362,-9178.553681,842.705048
6343.120733,-3552.988522,-8734.430116,536.266849
6343.121056,-3034.844362,-8882.471304,306.438199
6343.121378,-2738.761985,-9030.512492,0.000000
6343.121701,-3330.926739,-8734.430116,153.219100
6343.122023,-3478.967927,-8808.450710,689.485948
6343.122346,-3034.844362,-9178.553681,612.876398
6343.122668,-2590.720797,-9474.636058,0.000000
6343.122991,-3330.926739,-9178.553681,0.000000
6343.123313,-3256.906145,-9030.512492,229.828649
6343.123636,-3701.029710,-8956.491898,383.047749
6343.123959,-3627.009116,-8808.450710,459.657299
6343.124281,-3478.967927,-8734.430116,229.828649
6343.124604,-3404.947333,-8956.491898,536.266849
6343.124926,-3182.885551,-8660.409521,306.438199
6343.125249,-3701.029710,-8142.265362,0.000000
6343.125571,-3701.029710,-9104.533087,0.000000
6343.125894,-3923.091493,-8808.450710,0.000000
6343.126216,-3627.009116,-9104.533087,229.828649
6343.126539,-3849.070898,-8660.409521,459.657299
6343.126862,-3849.070898,-9178.553681,919.314598
6343.127184,-4145.153275,-9326.594869,766.095498
6343.127507,-4589.276840,-8586.388927,383.047749
6343.127829,-4441.235652,-8882.471304,76.609550
6343.128152,-4959.379811,-8734.430116,153.219100
6343.128474,-5403.503377,-8956.491898,536.266849
6343.128797,-5181.441594,-8586.388927,76.609550
6343.129119,-4737.318029,-8364.327145,153.219100
6343.129442,-4737.318029,-8660.409521,-76.609550
6343.129764,-4811.338623,-8586.388927,229.828649
6343.130087,-4219.173869,-8734.430116,0.000000
6343.130410,-3997.112087,-8734.430116,229.828649
6343.130732,-3775.050304,-8808.450710,536.266849
6343.131055,-3775.050304,-8882.471304,842.705048
6343.131377,-3478.967927,-9178.553681,1455.581446
6343.131700,-3404.947333,-9178.553681,995.924147
6343.132022,-3478.967927,-8808.450710,1455.581446
6343.132345,-4145.153275,-8660.409521,995.924147
6343.132667,-3923.091493,-8882.471304,1378.971896
6343.132990,-4145.153275,-8586.388927,1225.752797
6343.133312,-4071.132681,-8956.491898,995.924147
6343.133635,-4293.194464,-8438.347739,1685.410096
6343.133958,-4663.297435,-8142.265362,1608.800546
6343.134280,-4219.173869,-7920.203579,1532.190996
6343.134603,-4367.215058,-8068.244768,1149.143247
6343.134925,-4367.215058,-8142.265362,842.705048
6343.135248,-4441.235652,-8290.306550,842.705048
6343.135570,-4219.173869,-8068.244768,1302.362347
6343.135893,-3923.091493,-8216.285956,1149.143247
6343.136215,-4367.215058,-8512.368333,1608.800546
6343.136538,-4071.132681,-8364.327145,1149.143247
6343.136860,-4293.194464,-8512.368333,1302.362347
6343.137183,-3849.070898,-8882.471304,1762.019645
6343.137506,-3701.029710,-8808.450710,1302.362347
6343.137828,-3552.988522,-8586.388927,1608.800546
6343.138151,-3330.926739,-8882.471304,1455.581446
6343.138473,-3182.885551,-8586.388927,1225.752797
6343.138796,-3108.864956,-8660.409521,842.705048
6343.139118,-2886.803174,-8586.388927,1149.143247
6343.139441,-2960.823768,-8808.450710,1455.581446
6343.139763,-3108.864956,-8808.450710,1302.362347
6343.140086,-3404.947333,-8660.409521,1378.971896
6343.140408,-3182.885551,-9104.533087,1302.362347
6343.140731,-3330.926739,-8512.368333,1455.581446
6343.141053,-3182.885551,-8512.368333,1302.362347
6343.141376,-3034.844362,-8512.368333,1455.581446
6343.141699,-2960.823768,-9252.574275,1072.533697
6343.142021,-3256.906145,-9104.533087,919.314598
6343.142344,-3478.967927,-9030.512492,995.924147
6343.142666,-3701.029710,-8956.491898,766.095498
6343.142989,-3404.947333,-9178.553681,536.266849
6343.143311,-3552.988522,-9548.656652,842.705048
6343.143634,-3478.967927,-9474.636058,1225.752797
6343.143956,-4293.194464,-8586.388927,1455.581446
6343.144279,-4145.153275,-8808.450710,536.266849
6343.144601,-4367.215058,-8438.347739,459.657299
6343.144924,-4515.256246,-8512.368333,153.219100
6343.145247,-4515.256246,-8364.327145,76.609550
6343.145569,-4811.338623,-7994.224174,689.485948
6343.145892,-4515.256246,-8364.327145,383.047749
6343.146214,-4515.256246,-8438.347739,-306.438199
6343.146537,-4367.215058,-8660.409521,0.000000
6343.146859,-4737.318029,-8660.409521,0.000000
6343.147182,-4737.318029,-8808.450710,76.609550
6343.147504,-4663.297435,-8660.409521,229.828649
6343.147827,-4737.318029,-8512.368333,229.828649
6343.148149,-4515.256246,-8882.471304,0.000000
6343.148472,-4145.153275,-8882.471304,0.000000
6343.148795,-4293.194464,-8956.491898,0.000000
6343.149117,-4293.194464,-8734.430116,0.000000
6343.149440,-4071.132681,-8882.471304,153.219100
6343.149762,-4071.132681,-9104.533087,229.828649
6343.150085,-3997.112087,-8438.347739,612.876398
6343.150407,-3404.947333,-9030.512492,306.438199
6343.150730,-3701.029710,-8660.409521,536.266849
6343.151052,-4293.194464,-8364.327145,1225.752797
6343.151375,-4293.194464,-9030.512492,153.219100
6343.151697,-4367.215058,-8956.491898,229.828649
6343.152020,-4293.194464,-8882.471304,0.000000
6343.152343,-4293.194464,-8808.450710,153.219100
6343.152665,-4441.235652,-8512.368333,229.828649
6343.152988,-3923.091493,-8142.265362,76.609550
6343.153310,-3775.050304,-8660.409521,1455.581446
6343.153633,-3627.009116,-8660.409521,229.828649
6343.153955,-3478.967927,-8586.388927,306.438199
6343.154278,-3256.906145,-8956.491898,689.485948
6343.154600,-3256.906145,-8882.471304,919.314598
6343.154923,-3108.864956,-8808.450710,842.705048
6343.155245,-3330.926739,-8734.430116,1072.533697
6343.155568,-3552.988522,-8808.450710,1149.143247
6343.155891,-3627.009116,-9326.594869,1302.362347
6343.156213,-3849.070898,-8734.430116,536.266849
6343.156536,-3923.091493,-8808.450710,919.314598
6343.156858,-3997.112087,-8956.491898,536.266849
6343.157181,-4219.173869,-8216.285956,919.314598
6343.157503,-4145.153275,-8734.430116,995.924147
6343.157826,-3923.091493,-8364.327145,459.657299
6343.158148,-4071.132681,-8586.388927,919.314598
6343.158471,-3849.070898,-8364.327145,306.438199
6343.158793,-3849.070898,-8438.347739,766.095498
6343.159116,-3775.050304,-8660.409521,919.314598
6343.159439,-3627.009116,-8808.450710,1149.143247
6343.159761,-3330.926739,-9474.636058,689.485948
6343.160084,-3330.926739,-8512.368333,1532.190996
6343.160406,-2960.823768,-8734.430116,995.924147
6343.160729,-3627.009116,-8956.491898,1532.190996
6343.161051,-3923.091493,-9030.512492,1378.971896
6343.161374,-3627.009116,-8882.471304,766.095498
6343.161696,-3775.050304,-8956.491898,689.485948
6343.162019,-4589.276840,-8512.368333,1532.190996
6343.162341,-4219.173869,-8956.491898,1072.533697
6343.162664,-3182.885551,-8364.327145,76.609550
6343.162987,-3775.050304,-8512.368333,689.485948
6343.163309,-4737.318029,-8142.265362,1149.143247
6343.163632,-4737.318029,-8512.368333,1455.581446
6343.163954,-4441.235652,-8512.368333,1149.143247
6343.164277,-4145.153275,-8364.327145,1532.190996
6343.164599,-4441.235652,-8364.327145,1225.752797
6343.164922,-4219.173869,-8586.388927,1302.362347
6343.165244,-4441.235652,-8882.471304,612.876398
6343.165567,-4293.194464,-8956.491898,536.266849
6343.165889,-4219.173869,-8956.491898,612.876398
6343.166212,-4441.235652,-8882.471304,1149.143247
6343.166535,-4145.153275,-8438.347739,1072.533697
6343.166857,-3627.009116,-8512.368333,1532.190996
6343.167180,-3997.112087,-8808.450710,1608.800546
6343.167502,-4515.256246,-8290.306550,1072.533697
6343.167825,-4367.215058,-8290.306550,919.314598
6343.168147,-4145.153275,-8512.368333,842.705048
6343.168470,-3849.070898,-8586.388927,306.438199
6343.168792,-3849.070898,-8660.409521,229.828649
6343.169115,-4145.153275,-8216.285956,612.876398
6343.169437,-3997.112087,-8290.306550,536.266849
6343.169760,-2960.823768,-8882.471304,-383.047749
6343.170082,-2812.782580,-9178.553681,306.438199
6343.170405,-2516.700203,-9030.512492,153.219100
6343.170728,-2664.741391,-8882.471304,306.438199
6343.171050,-2738.761985,-9030.512492,1532.190996
6343.171373,-2738.761985,-9252.574275,842.705048
6343.171695,-2960.823768,-9474.636058,995.924147
6343.172018,-2812.782580,-9252.574275,-383.047749
6343.172340,-3256.906145,-9252.574275,383.047749
6343.172663,-4071.132681,-9030.512492,383.047749
6343.172985,-3923.091493,-9178.553681,0.000000
6343.173308,-4293.194464,-9030.512492,-536.266849
6343.173630,-4441.235652,-8734.430116,-306.438199
6343.173953,-4811.338623,-8068.244768,153.219100
6343.174276,-4293.194464,-8068.244768,229.828649
6343.174598,-4367.215058,-8142.265362,-76.609550
6343.174921,-4515.256246,-8512.368333,0.000000
6343.175243,-4515.256246,-8808.450710,-459.657299
6343.175566,-4367.215058,-8586.388927,-229.828649
6343.175888,-3849.070898,-9252.574275,689.485948
6343.176211,-3627.009116,-8882.471304,536.266849
6343.176533,-3330.926739,-9030.512492,153.219100
6343.176856,-3627.009116,-9030.512492,383.047749
6343.177178,-4219.173869,-9400.615463,842.705048
6343.177501,-4219.173869,-9474.636058,536.266849
6343.177824,-3478.967927,-9474.636058,0.000000
6343.178146,-3997.112087,-8882.471304,766.095498
6343.178469,-4737.318029,-8142.265362,1915.238745
6343.178791,-4737.318029,-8290.306550,919.314598
6343.179114,-3997.112087,-8512.368333,0.000000
6343.179436,-4293.194464,-8512.368333,0.000000
6343.179759,-5107.421000,-8364.327145,229.828649
6343.180081,-4811.338623,-8586.388927,842.705048
6343.180404,-4219.173869,-8438.347739,383.047749
6343.180726,-4293.194464,-8438.347739,536.266849
6343.181049,-4959.379811,-8216.285956,1149.143247
6343.181372,-4737.318029,-8660.409521,1149.143247
6343.181694,-3775.050304,-8734.430116,1072.533697
6343.182017,-3478.967927,-9104.533087,689.485948
6343.182339,-3701.029710,-8808.450710,1455.581446
6343.182662,-3552.988522,-8660.409521,2068.457845
6343.182984,-3478.967927,-8364.327145,1685.410096
6343.183307,-4219.173869,-8586.388927,1685.410096
6343.183629,-4293.194464,-8808.450710,689.485948
6343.183952,-3849.070898,-8734.430116,383.047749
6343.184274,-4737.318029,-7920.203579,1072.533697
6343.184597,-4589.276840,-8068.244768,766.095498
6343.184920,-5033.400406,-8364.327145,842.705048
6343.185242,-5033.400406,-7920.203579,766.095498
6343.185565,-4441.235652,-7994.224174,842.705048
6343.185887,-4071.132681,-7624.121203,1072.533697
6343.186210,-3701.029710,-8142.265362,1455.581446
6343.186532,-3923.091493,-8438.347739,1608.800546
6343.186855,-3478.967927,-8882.471304,1455.581446
6343.187177,-3701.029710,-8808.450710,1532.190996
6343.187500,-3552.988522,-9474.636058,1455.581446
6343.187822,-3701.029710,-8142.265362,1762.019645
6343.188145,-3182.885551,-9178.553681,1072.533697
6343.188468,-2960.823768,-9252.574275,689.485948
6343.188790,-3478.967927,-9326.594869,766.095498
6343.189113,-3404.947333,-9030.512492,995.924147
6343.189435,-2960.823768,-8586.388927,919.314598
6343.189758,-2960.823768,-8956.491898,1225.752797
6343.190080,-3182.885551,-8734.430116,995.924147
6343.190403,-3775.050304,-8216.285956,2068.457845
6343.190725,-3997.112087,-8142.265362,1838.629195
6343.191048,-3330.926739,-8660.409521,1532.190996
6343.191370,-4071.132681,-8660.409521,1072.533697
6343.191693,-4219.173869,-8364.327145,1302.362347
6343.192016,-4293.194464,-8882.471304,995.924147
6343.192338,-4515.256246,-8364.327145,1225.752797
6343.192661,-4293.194464,-8956.491898,612.876398
6343.192983,-4071.132681,-8734.430116,536.266849
6343.193306,-4145.153275,-8512.368333,919.314598
6343.193628,-4145.153275,-8586.388927,842.705048
6343.193951,-3552.988522,-8734.430116,689.485948
6343.194273,-3775.050304,-8586.388927,766.095498
6343.194596,-3627.009116,-9178.553681,842.705048
6343.194918,-4441.235652,-8660.409521,1532.190996
6343.195241,-3775.050304,-8956.491898,689.485948
6343.195563,-3775.050304,-8956.491898,536.266849
6343.195886,-4293.194464,-9252.574275,842.705048
6343.196209,-4515.256246,-9030.512492,383.047749
6343.196531,-4515.256246,-9104.533087,459.657299
6343.196854,-4441.235652,-9030.512492,689.485948
6343.197176,-4293.194464,-8586.388927,459.657299
6343.197499,-4663.297435,-8586.388927,229.828649
6343.197821,-4145.153275,-8216.285956,612.876398
6343.198144,-4441.235652,-8290.306550,306.438199
6343.198466,-4219.173869,-8808.450710,0.000000
6343.198789,-4145.153275,-8438.347739,306.438199
6343.199111,-3923.091493,-8438.347739,229.828649
6343.199434,-3627.009116,-8734.430116,0.000000
6343.199757,-3849.070898,-8512.368333,919.314598
6343.200079,-3552.988522,-8660.409521,919.314598
6343.200402,-3701.029710,-8882.471304,919.314598
6343.200724,-3775.050304,-8808.450710,842.705048
6343.201047,-3775.050304,-8734.430116,766.095498
6343.201369,-3923.091493,-8660.409521,766.095498
6343.201692,-3849.070898,-8808.450710,766.095498
6343.202014,-4219.173869,-7920.203579,306.438199
6343.202337,-4293.194464,-8290.306550,229.828649
6343.202659,-4145.153275,-8290.306550,0.000000
6343.202982,-4441.235652,-8290.306550,0.000000
6343.203305,-3701.029710,-8586.388927,0.000000
6343.203627,-3552.988522,-8512.368333,459.657299
6343.203950,-3478.967927,-8808.450710,536.266849
6343.204272,-3182.885551,-8660.409521,1149.143247
6343.204595,-2886.803174,-9252.574275,1378.971896
6343.204917,-2442.679609,-9178.553681,842.705048
6343.205240,-3182.885551,-9474.636058,689.485948
6343.205562,-3478.967927,-9030.512492,612.876398
6343.205885,-3552.988522,-9474.636058,459.657299
6343.206207,-3849.070898,-9326.594869,383.047749
6343.206530,-3849.070898,-9474.636058,0.000000
6343.206853,-4071.132681,-8660.409521,689.485948
6343.207175,-4219.173869,-8882.471304,383.047749
6343.207498,-4367.215058,-8290.306550,0.000000
6343.207820,-4367.215058,-8808.450710,459.657299
6343.208143,-4367.215058,-8438.347739,459.657299
6343.208465,-4589.276840,-8512.368333,459.657299
6343.208788,-4441.235652,-8808.450710,0.000000
6343.209110,-4589.276840,-8586.388927,689.485948
6343.209433,-4441.235652,-8660.409521,766.095498
6343.209755,-3849.070898,-9252.574275,919.314598
6343.210078,-4071.132681,-9252.574275,612.876398
6343.210401,-4219.173869,-9030.512492,1149.143247
6343.210723,-4071.132681,-8956.491898,919.314598
6343.211046,-3552.988522,-9178.553681,919.314598
6343.211368,-3108.864956,-8808.450710,306.438199
6343.211691,-3701.029710,-8438.347739,842.705048
6343.212013,-4737.318029,-8068.244768,1225.752797
6343.212336,-3997.112087,-9030.512492,995.924147
6343.212658,-3478.967927,-8660.409521,766.095498
6343.212981,-3849.070898,-8438.347739,842.705048
6343.213303,-4145.153275,-8734.430116,1225.752797
6343.213626,-4737.318029,-8438.347739,1532.190996
6343.213949,-4071.132681,-8216.285956,995.924147
6343.214271,-3849.070898,-8216.285956,919.314598
6343.214594,-4663.297435,-8290.306550,1838.629195
6343.214916,-4367.215058,-8290.306550,1685.410096
6343.215239,-4145.153275,-8660.409521,1532.190996
6343.215561,-4219.173869,-8364.327145,1072.533697
6343.215884,-4441.235652,-8364.327145,536.266849
6343.216206,-4663.297435,-8142.265362,1378.971896
6343.216529,-3627.009116,-8216.285956,995.924147
6343.216851,-3627.009116,-8142.265362,689.485948
6343.217174,-3552.988522,-8438.347739,1149.143247
6343.217497,-3330.926739,-8290.306550,919.314598
6343.217819,-3627.009116,-8364.327145,1378.971896
6343.218142,-3108.864956,-8660.409521,919.314598
6343.218464,-2812.782580,-9474.636058,612.876398
6343.218787,-3330.926739,-8808.450710,1225.752797
6343.219109,-3108.864956,-8734.430116,1455.581446
6343.219432,-2812.782580,-9030.512492,766.095498
6343.219754,-2960.823768,-9400.615463,612.876398
6343.220077,-3108.864956,-8882.471304,229.828649
6343.220399,-2738.761985,-8956.491898,76.609550
6343.220722,-2886.803174,-8290.306550,383.047749
6343.221045,-2516.700203,-8586.388927,229.828649
6343.221367,-1850.514855,-9474.636058,-383.047749
6343.221690,-1850.514855,-9104.533087,-153.219100
6343.222012,-2072.576638,-9178.553681,0.000000
6343.222335,-1924.535449,-9474.636058,383.047749
6343.222657,-1850.514855,-9548.656652,0.000000
6343.222980,-1332.370696,-9770.718434,306.438199
6343.223302,-1702.473667,-9770.718434,0.000000
6343.223625,-2886.803174,-9844.739029,153.219100
6343.223947,-3108.864956,-9326.594869,0.000000
6343.224270,-2960.823768,-9548.656652,-306.438199
6343.224592,-3701.029710,-9104.533087,-536.266849
6343.224915,-4071.132681,-9178.553681,-995.924147
6343.225238,-4441.235652,-8808.450710,-689.485948
6343.225560,-4515.256246,-8586.388927,-1378.971896
6343.225883,-4663.297435,-8142.265362,-919.314598
6343.226205,-4293.194464,-8808.450710,-919.314598
6343.226528,-4515.256246,-8586.388927,-1378.971896
6343.226850,-4441.235652,-8882.471304,-1225.752797
6343.227173,-4293.194464,-9030.512492,-842.705048
6343.227495,-3923.091493,-9252.574275,-689.485948
6343.227818,-3849.070898,-8956.491898,-383.047749
6343.228140,-3997.112087,-9400.615463,0.000000
6343.228463,-3701.029710,-9844.739029,0.000000
6343.228786,-3627.009116,-9622.677246,-459.657299
6343.229108,-3627.009116,-9622.677246,-766.095498
6343.229431,-4071.132681,-9326.594869,-766.095498
6343.229753,-4071.132681,-9770.718434,-612.876398
6343.230076,-3849.070898,-9474.636058,-1302.362347
6343.230398,-3701.029710,-9252.574275,-612.876398
6343.230721,-4515.256246,-8142.265362,-459.657299
6343.231043,-4293.194464,-8512.368333,-536.266849
6343.231366,-4219.173869,-8512.368333,-612.876398
6343.231688,-4145.153275,-8660.409521,-536.266849
6343.232011,-4367.215058,-8438.347739,0.000000
6343.232334,-3627.009116,-8734.430116,0.000000
6343.232656,-3701.029710,-8438.347739,306.438199
6343.232979,-3552.988522,-8808.450710,229.828649
6343.233301,-3552.988522,-8882.471304,0.000000
6343.233624,-3701.029710,-9030.512492,383.047749
6343.233946,-3404.947333,-8808.450710,383.047749
6343.234269,-3330.926739,-9030.512492,842.705048
6343.234591,-3182.885551,-8956.491898,383.047749
6343.234914,-3404.947333,-8882.471304,1072.533697
6343.235236,-3404.947333,-8290.306550,766.095498
6343.235559,-2960.823768,-8068.244768,0.000000
6343.235882,-2960.823768,-8364.327145,995.924147
6343.236204,-3256.906145,-8808.450710,766.095498
6343.236527,-3330.926739,-8512.368333,612.876398
6343.236849,-3108.864956,-8512.368333,842.705048
6343.237172,-2664.741391,-8734.430116,1302.362347
6343.237494,-2516.700203,-9252.574275,1302.362347
6343.237817,-2886.803174,-8882.471304,1762.019645
6343.238139,-2886.803174,-8808.450710,1455.581446
6343.238462,-2664.741391,-9178.553681,995.924147
6343.238785,-2590.720797,-9252.574275,1455.581446
6343.239107,-2664.741391,-9104.533087,1225.752797
6343.239430,-2442.679609,-9252.574275,1532.190996
6343.239752,-2368.659014,-9252.574275,689.485948
6343.240075,-2664.741391,-8882.471304,229.828649
6343.240397,-3034.844362,-8438.347739,1225.752797
6343.240720,-2812.782580,-9030.512492,689.485948
6343.241042,-2886.803174,-8660.409521,766.095498
6343.241365,-2812.782580,-8956.491898,842.705048
6343.241687,-2886.803174,-8956.491898,995.924147
6343.242010,-3404.947333,-8808.450710,1225.752797
6343.242333,-3256.906145,-8734.430116,306.438199
6343.242655,-3182.885551,-9104.533087,1608.800546
6343.242978,-3552.988522,-8734.430116,689.485948
6343.243300,-3701.029710,-8956.491898,919.314598
6343.243623,-3849.070898,-9104.533087,612.876398
6343.243945,-3849.070898,-9474.636058,383.047749
6343.244268,-3923.091493,-8438.347739,229.828649
6343.244590,-3775.050304,-9104.533087,1225.752797
6343.244913,-4071.132681,-8734.430116,-229.828649
6343.245235,-3701.029710,-8734.430116,76.609550
6343.245558,-4071.132681,-8660.409521,0.000000
6343.245881,-3923.091493,-8734.430116,0.000000
6343.246203,-4071.132681,-8882.471304,0.000000
6343.246526,-3923.091493,-8512.368333,-383.047749
6343.246848,-4071.132681,-8512.368333,-153.219100
6343.247171,-3627.009116,-8734.430116,-229.828649
6343.247493,-3997.112087,-9030.512492,76.609550
6343.247816,-3923.091493,-9252.574275,-306.438199
6343.248138,-3849.070898,-9474.636058,0.000000
6343.248461,-3849.070898,-9400.615463,-459.657299
6343.248783,-3552.988522,-9326.594869,306.438199
6343.249106,-3775.050304,-9400.615463,-612.876398
6343.249429,-3404.947333,-8216.285956,-383.047749
6343.249751,-3701.029710,-8586.388927,-536.266849
6343.250074,-3775.050304,-8956.491898,-536.266849
6343.250396,-3404.947333,-8956.491898,-612.876398
6343.250719,-3330.926739,-8882.471304,-612.876398
6343.251041,-3330.926739,-8956.491898,-383.047749
6343.251364,-3627.009116,-9030.512492,-306.438199
6343.251686,-3552.988522,-8512.368333,76.609550
6343.252009,-3330.926739,-8882.471304,-689.485948
6343.252331,-3108.864956,-9104.533087,76.609550
6343.252654,-2960.823768,-8956.491898,-383.047749
6343.252977,-3330.926739,-9030.512492,0.000000
6343.253299,-3701.029710,-9178.553681,0.000000
6343.253622,-2812.782580,-9030.512492,-459.657299
6343.253944,-2886.803174,-9030.512492,-229.828649
6343.254267,-3701.029710,-8956.491898,306.438199
6343.254589,-3997.112087,-8882.471304,0.000000
6343.254912,-2960.823768,-8956.491898,-383.047749
6343.255234,-2664.741391,-8956.491898,-306.438199
6343.255557,-3256.906145,-9104.533087,0.000000
6343.255879,-3552.988522,-8956.491898,536.266849
6343.256202,-3404.947333,-9326.594869,76.609550
6343.256525,-3034.844362,-8956.491898,-306.438199
6343.256847,-3256.906145,-8660.409521,0.000000
6343.257170,-3701.029710,-8660.409521,459.657299
6343.257492,-3701.029710,-8882.471304,612.876398
6343.257815,-3256.906145,-9030.512492,-229.828649
6343.258137,-3256.906145,-9252.574275,0.000000
6343.258460,-3701.029710,-9104.533087,0.000000
6343.258782,-4367.215058,-8512.368333,1149.143247
6343.259105,-3552.988522,-8734.430116,766.095498
6343.259427,-3256.906145,-9400.615463,1225.752797
6343.259750,-3552.988522,-8882.471304,689.485948
6343.260073,-3997.112087,-8660.409521,1225.752797
6343.260395,-4293.194464,-8586.388927,1072.533697
6343.260718,-3627.009116,-8956.491898,1225.752797
6343.261040,-3627.009116,-8734.430116,612.876398
6343.261363,-3701.029710,-8438.347739,76.609550
6343.261685,-3997.112087,-8364.327145,536.266849
6343.262008,-3849.070898,-8290.306550,1072.533697
6343.262330,-3478.967927,-8882.471304,689.485948
6343.262653,-3627.009116,-8808.450710,306.438199
6343.262976,-3627.009116,-8586.388927,766.095498
6343.263298,-2960.823768,-8808.450710,1915.238745
6343.263621,-3182.885551,-8290.306550,1762.019645
6343.263943,-3478.967927,-8586.388927,919.314598
6343.264266,-3404.947333,-8956.491898,76.609550
6343.264588,-4071.132681,-9178.553681,689.485948
6343.264911,-4071.132681,-9178.553681,1455.581446
6343.265233,-3627.009116,-8956.491898,766.095498
6343.265556,-4071.132681,-8734.430116,229.828649
6343.265878,-4145.153275,-8882.471304,-536.266849
6343.266201,-4071.132681,-8142.265362,-306.438199
6343.266524,-3849.070898,-8290.306550,-383.047749
6343.266846,-3478.967927,-8290.306550,-536.266849
6343.267169,-3701.029710,-8586.388927,229.828649
6343.267491,-3108.864956,-8586.388927,383.047749
6343.267814,-2516.700203,-9326.594869,1072.533697
6343.268136,-3034.844362,-8882.471304,842.705048
6343.268459,-2368.659014,-9178.553681,0.000000
6343.268781,-2960.823768,-9400.615463,689.485948
6343.269104,-3256.906145,-9622.677246,229.828649
6343.269426,-3404.947333,-9622.677246,306.438199
6343.269749,-3182.885551,-9326.594869,76.609550
6343.270072,-3775.050304,-8586.388927,766.095498
6343.270394,-3627.009116,-8882.471304,0.000000
6343.270717,-3404.947333,-9030.512492,0.000000
6343.271039,-3627.009116,-8512.368333,-842.705048
6343.271362,-3775.050304,-8438.347739,-459.657299
6343.271684,-3923.091493,-8586.388927,229.828649
6343.272007,-3256.906145,-8586.388927,0.000000
6343.272329,-2886.803174,-8882.471304,-842.705048
6343.272652,-3256.906145,-8808.450710,383.047749
6343.272974,-2886.803174,-9252.574275,919.314598
6343.273297,-2516.700203,-8956.491898,306.438199
6343.273620,-2442.679609,-9918.759623,612.876398
6343.273942,-2664.741391,-9770.718434,536.266849
6343.274265,-2664.741391,-9696.697840,1149.143247
6343.274587,-3034.844362,-9400.615463,459.657299
6343.274910,-3330.926739,-9252.574275,536.266849
6343.275232,-3182.885551,-8882.471304,-689.485948
6343.275555,-3478.967927,-9474.636058,229.828649
6343.275877,-4071.132681,-8660.409521,0.000000
6343.276200,-3923.091493,-8068.244768,0.000000
6343.276522,-3997.112087,-8586.388927,0.000000
6343.276845,-3997.112087,-8734.430116,-383.047749
6343.277168,-3997.112087,-8438.347739,-383.047749
6343.277490,-3849.070898,-8216.285956,-383.047749
6343.277813,-3478.967927,-8586.388927,76.609550
6343.278135,-3034.844362,-9252.574275,306.438199
6343.278458,-3182.885551,-9030.512492,76.609550
6343.278780,-3330.926739,-9548.656652,766.095498
6343.279103,-3034.844362,-9474.636058,383.047749
6343.279425,-3478.967927,-9104.533087,689.485948
6343.279748,-3330.926739,-8734.430116,0.000000
6343.280070,-3108.864956,-9474.636058,76.609550
6343.280393,-3552.988522,-9104.533087,76.609550
6343.280716,-3701.029710,-8882.471304,0.000000
6343.281038,-3997.112087,-8438.347739,-153.219100
6343.281361,-3627.009116,-8364.327145,0.000000
6343.281683,-3849.070898,-8660.409521,0.000000
6343.282006,-4145.153275,-8734.430116,0.000000
6343.282328,-3330.926739,-8364.327145,-306.438199
6343.282651,-3478.967927,-8216.285956,459.657299
6343.282973,-3404.947333,-8734.430116,0.000000
6343.283296,-3182.885551,-8808.450710,153.219100
6343.283618,-3330.926739,-8956.491898,0.000000
6343.283941,-3330.926739,-8808.450710,0.000000
6343.284264,-3330.926739,-8956.491898,229.828649
6343.284586,-3182.885551,-8512.368333,153.219100
6343.284909,-2960.823768,-8808.450710,0.000000
6343.285231,-3108.864956,-9252.574275,612.876398
6343.285554,-3256.906145,-8956.491898,76.609550
6343.285876,-3034.844362,-8586.388927,0.000000
6343.286199,-2960.823768,-8808.450710,-229.828649
6343.286521,-3256.906145,-8364.327145,153.219100
6343.286844,-3108.864956,-8586.388927,-383.047749
6343.287167,-3108.864956,-7920.203579,0.000000
6343.287489,-3256.906145,-9178.553681,459.657299
6343.287812,-3182.885551,-9252.574275,-306.438199
6343.288134,-3256.906145,-9474.636058,0.000000
6343.288457,-3108.864956,-9400.615463,-306.438199
6343.288779,-3182.885551,-9104.533087,229.828649
6343.289102,-3330.926739,-9474.636058,919.314598
6343.289424,-3478.967927,-9548.656652,0.000000
6343.289747,-2886.803174,-9252.574275,-306.438199
6343.290069,-3330.926739,-9548.656652,-383.047749
6343.290392,-3775.050304,-9474.636058,-383.047749
6343.290715,-3923.091493,-9326.594869,-229.828649
6343.291037,-3849.070898,-9030.512492,-229.828649
6343.291360,-3552.988522,-9252.574275,-306.438199
6343.291682,-3701.029710,-9252.574275,0.000000
6343.292005,-3701.029710,-8882.471304,-919.314598
6343.292327,-3627.009116,-9178.553681,-306.438199
6343.292650,-3627.009116,-9104.533087,76.609550
6343.292972,-3849.070898,-9104.533087,229.828649
6343.293295,-3849.070898,-9326.594869,0.000000
6343.293617,-3701.029710,-8808.450710,383.047749
6343.293940,-3923.091493,-9030.512492,-153.219100
6343.294263,-3627.009116,-8882.471304,0.000000
6343.294585,-3404.947333,-9252.574275,0.000000
6343.294908,-3552.988522,-9104.533087,383.047749
6343.295230,-3404.947333,-8882.471304,536.266849
6343.295553,-3330.926739,-8882.471304,842.705048
6343.295875,-3108.864956,-9178.553681,459.657299
6343.296198,-2960.823768,-8364.327145,306.438199
6343.296520,-3404.947333,-8364.327145,689.485948
6343.296843,-3404.947333,-8586.388927,536.266849
6343.297165,-3182.885551,-8586.388927,76.609550
6343.297488,-3256.906145,-8882.471304,612.876398
6343.297811,-3256.906145,-8586.388927,766.095498
6343.298133,-3256.906145,-8808.450710,919.314598
6343.298456,-3108.864956,-8290.306550,995.924147
6343.298778,-3256.906145,-9030.512492,1149.143247
6343.299101,-3404.947333,-8364.327145,536.266849
6343.299423,-3478.967927,-8734.430116,842.705048
6343.299746,-3552.988522,-8586.388927,383.047749
6343.300068,-3478.967927,-8882.471304,689.485948
6343.300391,-3627.009116,-8808.450710,536.266849
6343.300713,-3775.050304,-8734.430116,1149.143247
6343.301036,-3330.926739,-8734.430116,1302.362347
6343.301359,-3404.947333,-8512.368333,1378.971896
6343.301681,-3849.070898,-8512.368333,1378.971896
6343.302004,-3404.947333,-8808.450710,1149.143247
6343.302326,-3478.967927,-8956.491898,766.095498
6343.302649,-3701.029710,-8808.450710,459.657299
6343.302971,-4071.132681,-8956.491898,612.876398
6343.303294,-3923.091493,-8438.347739,919.314598
6343.303616,-3330.926739,-9326.594869,-153.219100
6343.303939,-3108.864956,-8660.409521,0.000000
6343.304261,-3034.844362,-8882.471304,229.828649
6343.304584,-3182.885551,-8734.430116,536.266849
6343.304907,-3182.885551,-8882.471304,612.876398
6343.305229,-2960.823768,-8808.450710,612.876398
6343.305552,-2738.761985,-9326.594869,229.828649
6343.305874,-2664.741391,-9104.533087,459.657299
6343.306197,-2960.823768,-9030.512492,1532.190996
6343.306519,-3478.967927,-9326.594869,612.876398
6343.306842,-3256.906145,-9030.512492,842.705048
6343.307164,-3330.926739,-9474.636058,459.657299
6343.307487,-3330.926739,-9030.512492,306.438199
6343.307809,-3552.988522,-8956.491898,766.095498
6343.308132,-3775.050304,-8364.327145,536.266849
6343.308455,-3701.029710,-8734.430116,383.047749
6343.308777,-3775.050304,-8882.471304,-459.657299
6343.309100,-3923.091493,-8734.430116,-383.047749
6343.309422,-4293.194464,-8438.347739,0.000000
6343.309745,-4589.276840,-8956.491898,0.000000
6343.310067,-4589.276840,-8512.368333,153.219100
6343.310390,-4293.194464,-8660.409521,0.000000
6343.310712,-4441.235652,-8586.388927,383.047749
6343.311035,-5033.400406,-8290.306550,1302.362347
6343.311358,-5107.421000,-8882.471304,766.095498
6343.311680,-4737.318029,-9178.553681,0.000000
6343.312003,-4959.379811,-8660.409521,76.609550
6343.312325,-5329.482782,-8586.388927,-383.047749
6343.312648,-5329.482782,-7920.203579,306.438199
6343.312970,-4737.318029,-8068.244768,-153.219100
6343.313293,-4589.276840,-8290.306550,-612.876398
6343.313615,-4589.276840,-8512.368333,76.609550
6343.313938,-3923.091493,-8660.409521,153.219100
6343.314260,-3404.947333,-8882.471304,689.485948
6343.314583,-3256.906145,-8808.450710,995.924147
6343.314906,-3330.926739,-9474.636058,842.705048
6343.315228,-3849.070898,-9104.533087,1685.410096
6343.315551,-3849.070898,-9474.636058,1685.410096
6343.315873,-3775.050304,-9474.636058,919.314598
6343.316196,-4145.153275,-9104.533087,1225.752797
6343.316518,-4589.276840,-8956.491898,1072.533697
6343.316841,-4515.256246,-8586.388927,689.485948
6343.317163,-4811.338623,-8290.306550,536.266849
6343.317486,-4219.173869,-7994.224174,0.000000
6343.317808,-4663.297435,-7698.141797,383.047749
6343.318131,-4071.132681,-7624.121203,1149.143247
6343.318454,-3997.112087,-8142.265362,1302.362347
6343.318776,-3701.029710,-8142.265362,919.314598
6343.319099,-3923.091493,-8734.430116,1455.581446
6343.319421,-3923.091493,-8216.285956,1149.143247
6343.319744,-3997.112087,-8364.327145,2145.067394
6343.320066,-3775.050304,-8586.388927,1915.238745
6343.320389,-3627.009116,-8586.388927,1685.410096
6343.320711,-4145.153275,-8586.388927,1838.629195
6343.321034,-3923.091493,-9030.512492,1608.800546
6343.321356,-3849.070898,-8734.430116,1149.143247
6343.321679,-3775.050304,-8734.430116,1302.362347
6343.322002,-3552.988522,-8364.327145,766.095498
6343.322324,-3627.009116,-8438.347739,1225.752797
6343.322647,-3627.009116,-8068.244768,919.314598
6343.322969,-3701.029710,-8142.265362,1302.362347
6343.323292,-3256.906145,-8290.306550,919.314598
6343.323614,-2886.803174,-8586.388927,1072.533697
6343.323937,-2960.823768,-8586.388927,1608.800546
6343.324259,-2886.803174,-8734.430116,1685.410096
6343.324582,-2516.700203,-9252.574275,1302.362347
6343.324904,-3478.967927,-9030.512492,1685.410096
6343.325227,-2960.823768,-9400.615463,2145.067394
6343.325550,-3034.844362,-9252.574275,1455.581446
6343.325872,-3108.864956,-9400.615463,1149.143247
6343.326195,-3701.029710,-9178.553681,766.095498
6343.326517,-3849.070898,-8438.347739,459.657299
6343.326840,-3997.112087,-8734.430116,766.095498
6343.327162,-4219.173869,-8512.368333,1072.533697
6343.327485,-4589.276840,-8290.306550,612.876398
6343.327807,-4515.256246,-8512.368333,0.000000
6343.328130,-4737.318029,-8068.244768,153.219100
6343.328452,-4737.318029,-8660.409521,76.609550
6343.328775,-4663.297435,-8142.265362,0.000000
6343.329098,-4293.194464,-8660.409521,153.219100
6343.329420,-4515.256246,-8290.306550,0.000000
6343.329743,-4441.235652,-8586.388927,1072.533697
6343.330065,-4145.153275,-9030.512492,459.657299
6343.330388,-4515.256246,-9400.615463,306.438199
6343.330710,-4663.297435,-9104.533087,459.657299
6343.331033,-4663.297435,-9104.533087,459.657299
6343.331356,-4515.256246,-9030.512492,306.438199
6343.331678,-4589.276840,-8068.244768,1302.362347
6343.332001,-4367.215058,-8808.450710,-229.828649
6343.332323,-4515.256246,-8364.327145,-306.438199
6343.332646,-4441.235652,-8734.430116,-383.047749
6343.332968,-4293.194464,-8586.388927,0.000000
6343.333291,-4367.215058,-8512.368333,229.828649
6343.333614,-4145.153275,-8364.327145,229.828649
6343.333936,-4145.153275,-8438.347739,1225.752797
6343.334259,-3627.009116,-8882.471304,689.485948
6343.334581,-4145.153275,-8586.388927,536.266849
6343.334904,-3330.926739,-9104.533087,842.705048
6343.335227,-3997.112087,-9104.533087,459.657299
6343.335549,-3849.070898,-8808.450710,689.485948
6343.335872,-3923.091493,-9178.553681,383.047749
6343.336194,-4219.173869,-8734.430116,995.924147
6343.336517,-3997.112087,-9178.553681,-536.266849
6343.336840,-4145.153275,-8142.265362,0.000000
6343.337162,-3775.050304,-8290.306550,229.828649
6343.337485,-3849.070898,-8290.306550,306.438199
6343.337807,-3701.029710,-8364.327145,76.609550
6343.338130,-3478.967927,-8660.409521,306.438199
6343.338453,-3404.947333,-8512.368333,842.705048
6343.338775,-3701.029710,-8438.347739,995.924147
6343.339098,-3404.947333,-8956.491898,1149.143247
6343.339420,-3478.967927,-9030.512492,1225.752797
6343.339743,-3627.009116,-9252.574275,1302.362347
6343.340065,-3701.029710,-9104.533087,1225.752797
6343.340388,-3849.070898,-9030.512492,1072.533697
6343.340711,-3923.091493,-8956.491898,536.266849
6343.341033,-3997.112087,-8586.388927,536.266849
6343.341356,-3923.091493,-8438.347739,1378.971896
6343.341678,-3627.009116,-9030.512492,76.609550
6343.342001,-3923.091493,-8438.347739,383.047749
6343.342324,-3775.050304,-8290.306550,383.047749
6343.342646,-3552.988522,-8956.491898,1072.533697
6343.342969,-3552.988522,-8882.471304,1225.752797
6343.343291,-3552.988522,-8734.430116,919.314598
6343.343614,-4071.132681,-8512.368333,1915.238745
6343.343937,-3552.988522,-8882.471304,1455.581446
6343.344259,-3627.009116,-8808.450710,1302.362347
6343.344582,-4071.132681,-8660.409521,1072.533697
6343.344904,-4737.318029,-8882.471304,842.705048
6343.345227,-4885.359217,-9104.533087,1149.143247
6343.345550,-4071.132681,-8808.450710,842.705048
6343.345872,-4071.132681,-8438.347739,842.705048
6343.346195,-4737.318029,-8068.244768,1455.581446
6343.346517,-4515.256246,-8142.265362,1072.533697
6343.346840,-3923.091493,-8586.388927,842.705048
6343.347162,-4071.132681,-8438.347739,919.314598
6343.347485,-3923.091493,-8364.327145,842.705048
6343.347808,-3997.112087,-8586.388927,1608.800546
6343.348130,-3701.029710,-8734.430116,1838.629195
6343.348453,-4219.173869,-8438.347739,1149.143247
6343.348775,-4293.194464,-9252.574275,842.705048
6343.349098,-4589.276840,-8882.471304,1149.143247
6343.349421,-4219.173869,-8882.471304,766.095498
6343.349743,-3997.112087,-8882.471304,536.266849
6343.350066,-4441.235652,-9030.512492,1149.143247
6343.350388,-4367.215058,-8808.450710,1302.362347
6343.350711,-4293.194464,-8290.306550,1072.533697
6343.351034,-4441.235652,-8068.244768,1149.143247
6343.351356,-4145.153275,-8216.285956,536.266849
6343.351679,-3997.112087,-8068.244768,689.485948
6343.352001,-3701.029710,-8290.306550,229.828649
6343.352324,-3849.070898,-7920.203579,536.266849
6343.352646,-3627.009116,-8882.471304,612.876398
6343.352969,-3627.009116,-9178.553681,383.047749
6343.353292,-2812.782580,-8882.471304,919.314598
6343.353614,-2368.659014,-9252.574275,153.219100
6343.353937,-2368.659014,-8808.450710,919.314598
6343.354259,-2664.741391,-9326.594869,1225.752797
6343.354582,-2664.741391,-9400.615463,766.095498
6343.354905,-2960.823768,-9104.533087,766.095498
6343.355227,-3182.885551,-9770.718434,459.657299
6343.355550,-4293.194464,-8586.388927,842.705048
6343.355872,-4737.318029,-8808.450710,995.924147
6343.356195,-4219.173869,-8438.347739,-306.438199
6343.356518,-4737.318029,-8734.430116,0.000000
6343.356840,-4885.359217,-8290.306550,-459.657299
6343.357163,-4589.276840,-8290.306550,-536.266849
6343.357485,-3997.112087,-8660.409521,-383.047749
6343.357808,-3701.029710,-8882.471304,0.000000
6343.358131,-3701.029710,-8808.450710,536.266849
6343.358453,-3034.844362,-8512.368333,1608.800546
6343.358776,-3256.906145,-8734.430116,1149.143247
6343.359098,-3478.967927,-9548.656652,1149.143247
6343.359421,-3923.091493,-9474.636058,1149.143247
6343.359743,-3849.070898,-9622.677246,766.095498
6343.360066,-4293.194464,-8660.409521,383.047749
6343.360389,-4737.318029,-8364.327145,995.924147
6343.360711,-4959.379811,-9030.512492,0.000000
6343.361034,-4737.318029,-8660.409521,-383.047749
6343.361356,-4515.256246,-8734.430116,-383.047749
6343.361679,-4737.318029,-8290.306550,0.000000
6343.362002,-4663.297435,-8364.327145,306.438199
6343.362324,-3849.070898,-8438.347739,536.266849
6343.362647,-4145.153275,-7994.224174,536.266849
6343.362969,-4515.256246,-8216.285956,995.924147
6343.363292,-4441.235652,-8882.471304,1072.533697
6343.363615,-3923.091493,-8956.491898,995.924147
6343.363937,-4219.173869,-9178.553681,1149.143247
6343.364260,-4219.173869,-9622.677246,1378.971896
6343.364582,-3997.112087,-9252.574275,1455.581446
6343.364905,-4219.173869,-9178.553681,995.924147
6343.365228,-4145.153275,-8586.388927,919.314598
6343.365550,-4737.318029,-8512.368333,689.485948
6343.365873,-4293.194464,-8512.368333,1072.533697
6343.366195,-4515.256246,-8364.327145,995.924147
6343.366518,-4367.215058,-7624.121203,766.095498
6343.366840,-4071.132681,-8438.347739,919.314598
6343.367163,-4145.153275,-8216.285956,842.705048
6343.367486,-3923.091493,-8660.409521,459.657299
6343.367808,-4145.153275,-7920.203579,1225.752797
6343.368131,-3701.029710,-8734.430116,1532.190996
6343.368453,-3849.070898,-8882.471304,1532.190996
6343.368776,-3552.988522,-8882.471304,1532.190996
6343.369099,-3701.029710,-8882.471304,1532.190996
6343.369421,-3701.029710,-8882.471304,1685.410096
6343.369744,-3404.947333,-8512.368333,1991.848295
6343.370066,-3775.050304,-8586.388927,1302.362347
6343.370389,-3330.926739,-8586.388927,1072.533697
6343.370712,-3775.050304,-8512.368333,1072.533697
6343.371034,-3923.091493,-8586.388927,1072.533697
6343.371357,-3701.029710,-8216.285956,1378.971896
6343.371679,-3478.967927,-8734.430116,1149.143247
6343.372002,-3330.926739,-8512.368333,612.876398
6343.372325,-3849.070898,-8586.388927,1762.019645
6343.372647,-3552.988522,-8586.388927,1455.581446
6343.372970,-3775.050304,-8512.368333,1149.143247
6343.373292,-4145.153275,-8734.430116,1225.752797
6343.373615,-3923.091493,-8734.430116,1455.581446
6343.373937,-3849.070898,-8660.409521,1685.410096
6343.374260,-3997.112087,-8882.471304,919.314598
6343.374583,-3330.926739,-9400.615463,919.314598
6343.374905,-3552.988522,-9104.533087,1225.752797
6343.375228,-3404.947333,-8660.409521,1072.533697
6343.375550,-3775.050304,-8734.430116,919.314598
6343.375873,-3997.112087,-8512.368333,1149.143247
6343.376196,-4071.132681,-8808.450710,1225.752797
6343.376518,-4293.194464,-8438.347739,1149.143247
6343.376841,-4367.215058,-8364.327145,919.314598
6343.377163,-4219.173869,-8660.409521,536.266849
6343.377486,-4145.153275,-8586.388927,919.314598
6343.377809,-4515.256246,-8438.347739,689.485948
6343.378131,-4441.235652,-8956.491898,76.609550
6343.378454,-4367.215058,-8808.450710,383.047749
6343.378776,-4441.235652,-8660.409521,383.047749
6343.379099,-3923.091493,-8808.450710,689.485948
6343.379421,-4071.132681,-8808.450710,842.705048
6343.379744,-4367.215058,-9326.594869,689.485948
6343.380067,-4145.153275,-8882.471304,919.314598
6343.380389,-4515.256246,-8734.430116,689.485948
6343.380712,-4219.173869,-8734.430116,459.657299
6343.381034,-4219.173869,-9104.533087,229.828649
6343.381357,-4293.194464,-8512.368333,229.828649
6343.381680,-4219.173869,-8438.347739,229.828649
6343.382002,-3701.029710,-8882.471304,0.000000
6343.382325,-4515.256246,-8660.409521,766.095498
6343.382647,-4145.153275,-8586.388927,229.828649
6343.382970,-3775.050304,-8734.430116,229.828649
6343.383293,-3849.070898,-8438.347739,0.000000
6343.383615,-3552.988522,-8660.409521,612.876398
6343.383938,-3552.988522,-8364.327145,842.705048
6343.384260,-3330.926739,-8734.430116,689.485948
6343.384583,-3108.864956,-8364.327145,919.314598
6343.384906,-3330.926739,-8956.491898,689.485948
6343.385228,-3330.926739,-9252.574275,459.657299
6343.385551,-3478.967927,-8808.450710,995.924147
6343.385873,-3478.967927,-9178.553681,459.657299
6343.386196,-3330.926739,-9104.533087,229.828649
6343.386518,-3330.926739,-8956.491898,919.314598
6343.386841,-3404.947333,-8512.368333,306.438199
6343.387164,-3849.070898,-8660.409521,76.609550
6343.387486,-3775.050304,-8586.388927,76.609550
6343.387809,-3997.112087,-9030.512492,229.828649
6343.388131,-4293.194464,-8734.430116,229.828649
6343.388454,-4367.215058,-8438.347739,536.266849
6343.388777,-4515.256246,-8290.306550,612.876398
6343.389099,-4293.194464,-8660.409521,612.876398
6343.389422,-4589.276840,-8808.450710,153.219100
6343.389744,-4589.276840,-8956.491898,229.828649
6343.390067,-4515.256246,-8734.430116,153.219100
6343.390390,-4589.276840,-8734.430116,229.828649
6343.390712,-4367.215058,-8956.491898,229.828649
6343.391035,-3627.009116,-8660.409521,0.000000
6343.391357,-3627.009116,-8290.306550,306.438199
6343.391680,-3701.029710,-8364.327145,459.657299
6343.392003,-3775.050304,-9252.574275,536.266849
6343.392325,-3404.947333,-9104.533087,689.485948
6343.392648,-3404.947333,-9252.574275,689.485948
6343.392970,-3997.112087,-8660.409521,1072.533697
6343.393293,-3775.050304,-9252.574275,1532.190996
6343.393615,-3849.070898,-8882.471304,1685.410096
6343.393938,-4071.132681,-8734.430116,1302.362347
6343.394261,-4885.359217,-8586.388927,1455.581446
6343.394583,-4737.318029,-8808.450710,1225.752797
6343.394906,-4515.256246,-8290.306550,842.705048
6343.395228,-4293.194464,-8142.265362,153.219100
6343.395551,-5107.421000,-8068.244768,689.485948
6343.395874,-4885.359217,-8068.244768,1149.143247
6343.396196,-4219.173869,-8512.368333,76.609550
6343.396519,-3775.050304,-8956.491898,536.266849
6343.396841,-4071.132681,-8808.450710,1225.752797
6343.397164,-3478.967927,-8956.491898,1378.971896
6343.397487,-3330.926739,-9104.533087,2068.457845
6343.397809,-3330.926739,-8882.471304,1762.019645
6343.398132,-2960.823768,-8734.430116,1608.800546
6343.398454,-3849.070898,-8808.450710,2145.067394
6343.398777,-3330.926739,-8808.450710,1302.362347
6343.399100,-3701.029710,-8734.430116,1225.752797
6343.399422,-3923.091493,-8586.388927,612.876398
6343.399745,-3923.091493,-8586.388927,689.485948
6343.400067,-3775.050304,-8142.265362,383.047749
6343.400390,-3256.906145,-8290.306550,0.000000
6343.400712,-3108.864956,-7994.224174,-459.657299
6343.401035,-2368.659014,-8142.265362,-383.047749
6343.401358,-2442.679609,-8586.388927,229.828649
6343.401680,-1924.535449,-8808.450710,229.828649
6343.402003,-2072.576638,-9178.553681,995.924147
6343.402325,-1776.494261,-9770.718434,1149.143247
6343.402648,-1554.432478,-10140.821405,689.485948
6343.402971,-1628.453072,-9474.636058,995.924147
6343.403293,-1776.494261,-9696.697840,919.314598
6343.403616,-2146.597232,-9474.636058,459.657299
6343.403938,-2294.638420,-9770.718434,-229.828649
6343.404261,-2664.741391,-9326.594869,-459.657299
6343.404584,-2886.803174,-9178.553681,-919.314598
6343.404906,-3108.864956,-8734.430116,-536.266849
6343.405229,-2960.823768,-9252.574275,-1915.238745
6343.405551,-3478.967927,-8808.450710,-536.266849
6343.405874,-3923.091493,-8882.471304,-306.438199
6343.406196,-3997.112087,-8734.430116,-919.314598
6343.406519,-4071.132681,-8586.388927,-536.266849
6343.406842,-4293.194464,-8808.450710,-842.705048
6343.407164,-3997.112087,-8808.450710,-536.266849
6343.407487,-4441.235652,-9030.512492,-766.095498
6343.407809,-3849.070898,-9326.594869,-1149.143247
6343.408132,-4071.132681,-9548.656652,-536.266849
6343.408455,-3849.070898,-9622.677246,-536.266849
6343.408777,-3627.009116,-9474.636058,-689.485948
6343.409100,-3627.009116,-9548.656652,-536.266849
6343.409422,-3849.070898,-9252.574275,0.000000
6343.409745,-3775.050304,-9252.574275,-459.657299
6343.410068,-4145.153275,-8290.306550,-919.314598
6343.410390,-4293.194464,-9030.512492,-612.876398
6343.410713,-4441.235652,-8956.491898,-1225.752797
6343.411035,-4219.173869,-9030.512492,-536.266849
6343.411358,-4367.215058,-8956.491898,0.000000
6343.411681,-4293.194464,-8956.491898,0.000000
6343.412003,-4145.153275,-9030.512492,76.609550
6343.412326,-3997.112087,-8882.471304,153.219100
6343.412648,-3701.029710,-8808.450710,-306.438199
6343.412971,-3701.029710,-8586.388927,-153.219100
6343.413293,-4071.132681,-8956.491898,-229.828649
6343.413616,-3923.091493,-8734.430116,-229.828649
6343.413939,-4145.153275,-9178.553681,-306.438199
6343.414261,-3627.009116,-9622.677246,-229.828649
6343.414584,-3775.050304,-9252.574275,-919.314598
6343.414906,-3552.988522,-8808.450710,-306.438199
6343.415229,-3478.967927,-8438.347739,0.000000
6343.415552,-3256.906145,-8956.491898,0.000000
6343.415874,-3182.885551,-8586.388927,306.438199
6343.416197,-2812.782580,-8734.430116,536.266849
6343.416519,-2812.782580,-8660.409521,1302.362347
6343.416842,-2960.823768,-8808.450710,1225.752797
6343.417165,-3108.864956,-9178.553681,766.095498
6343.417487,-2738.761985,-9178.553681,383.047749
6343.417810,-3034.844362,-9104.533087,612.876398
6343.418132,-2960.823768,-8956.491898,459.657299
6343.418455,-2886.803174,-8808.450710,536.266849
6343.418778,-2738.761985,-9104.533087,536.266849
6343.419100,-2442.679609,-8586.388927,1455.581446
6343.419423,-2220.617826,-8808.450710,1685.410096
6343.419745,-3108.864956,-7994.224174,1225.752797
6343.420068,-2368.659014,-9178.553681,1225.752797
6343.420390,-2368.659014,-8956.491898,1378.971896
6343.420713,-2590.720797,-9178.553681,1608.800546
6343.421036,-2664.741391,-8956.491898,1532.190996
6343.421358,-2368.659014,-9104.533087,1149.143247
6343.421681,-2442.679609,-8882.471304,1149.143247
6343.422003,-3108.864956,-8660.409521,1608.800546
6343.422326,-3627.009116,-8882.471304,1378.971896
6343.422649,-3108.864956,-8808.450710,1302.362347
6343.422971,-3256.906145,-8882.471304,842.705048
6343.423294,-3701.029710,-8734.430116,842.705048
6343.423616,-3997.112087,-8438.347739,766.095498
6343.423939,-3330.926739,-8142.265362,153.219100
6343.424262,-3478.967927,-8216.285956,0.000000
6343.424584,-3404.947333,-8364.327145,459.657299
6343.424907,-3552.988522,-8660.409521,612.876398
6343.425229,-3404.947333,-8660.409521,459.657299
6343.425552,-3478.967927,-9252.574275,689.485948
6343.425875,-3552.988522,-9252.574275,459.657299
6343.426197,-3627.009116,-9400.615463,612.876398
6343.426520,-4071.132681,-9252.574275,-229.828649
6343.426842,-4219.173869,-8882.471304,0.000000
6343.427165,-4515.256246,-9178.553681,-229.828649
6343.427487,-4367.215058,-8734.430116,-536.266849
6343.427810,-4367.215058,-8808.450710,-459.657299
6343.428133,-4515.256246,-8438.347739,-842.705048
6343.428455,-3997.112087,-9030.512492,-1149.143247
6343.428778,-3923.091493,-8586.388927,-995.924147
6343.429100,-3627.009116,-8882.471304,-229.828649
6343.429423,-3849.070898,-8586.388927,0.000000
6343.429746,-3404.947333,-9178.553681,229.828649
6343.430068,-3330.926739,-9326.594869,0.000000
6343.430391,-3034.844362,-9622.677246,-459.657299
6343.430713,-3330.926739,-9400.615463,0.000000
6343.431036,-3034.844362,-9474.636058,-842.705048
6343.431359,-3182.885551,-9474.636058,0.000000
6343.431681,-3701.029710,-9474.636058,76.609550
6343.432004,-3627.009116,-9548.656652,-229.828649
6343.432326,-3330.926739,-8882.471304,-612.876398
6343.432649,-3849.070898,-8438.347739,-459.657299
6343.432971,-3997.112087,-8290.306550,0.000000
6343.433294,-3627.009116,-8290.306550,-383.047749
6343.433617,-2664.741391,-8586.388927,-842.705048
6343.433939,-3256.906145,-8290.306550,-612.876398
6343.434262,-3923.091493,-9178.553681,0.000000
6343.434584,-3034.844362,-9030.512492,-383.047749
6343.434907,-2590.720797,-9252.574275,-229.828649
6343.435230,-3256.906145,-9326.594869,0.000000
6343.435552,-3701.029710,-9104.533087,459.657299
6343.435875,-2960.823768,-9178.553681,995.924147
6343.436197,-2812.782580,-9252.574275,76.609550
6343.436520,-2812.782580,-9326.594869,0.000000
6343.436843,-3034.844362,-9178.553681,76.609550
6343.437165,-3552.988522,-8808.450710,383.047749
6343.437488,-3404.947333,-8438.347739,0.000000
6343.437810,-2960.823768,-9178.553681,-306.438199
6343.438133,-3108.864956,-8364.327145,-459.657299
6343.438455,-3478.967927,-8660.409521,-459.657299
6343.438778,-3404.947333,-8734.430116,306.438199
6343.439101,-3330.926739,-9252.574275,919.314598
6343.439423,-3404.947333,-9252.574275,995.924147
6343.439746,-3775.050304,-8882.471304,1455.581446
6343.440068,-4219.173869,-8808.450710,1378.971896
6343.440391,-4071.132681,-8882.471304,536.266849
6343.440714,-4219.173869,-8956.491898,383.047749
6343.441036,-4145.153275,-8586.388927,0.000000
6343.441359,-4441.235652,-8290.306550,536.266849
6343.441681,-4293.194464,-8512.368333,842.705048
6343.442004,-3849.070898,-8364.327145,766.095498
6343.442327,-2886.803174,-9030.512492,0.000000
6343.442649,-3108.864956,-7772.162391,0.000000
6343.442972,-3552.988522,-8216.285956,1455.581446
6343.443294,-3627.009116,-8438.347739,1149.143247
6343.443617,-2886.803174,-9104.533087,1762.019645
6343.443939,-2960.823768,-9030.512492,1378.971896
6343.444262,-3552.988522,-8956.491898,1991.848295
6343.444585,-4367.215058,-9178.553681,2298.286494
6343.444907,-4145.153275,-8956.491898,1225.752797
6343.445230,-4293.194464,-8438.347739,229.828649
6343.445552,-4441.235652,-8956.491898,-153.219100
6343.445875,-4737.318029,-8068.244768,-536.266849
6343.446198,-4293.194464,-7994.224174,-1072.533697
6343.446520,-3997.112087,-8364.327145,-842.705048
6343.446843,-3330.926739,-8808.450710,-306.438199
6343.447165,-2294.638420,-8290.306550,229.828649
6343.447488,-2146.597232,-8364.327145,1455.581446
6343.447811,-2294.638420,-9030.512492,1225.752797
6343.448133,-2516.700203,-9400.615463,1991.848295
6343.448456,-2368.659014,-9992.780217,1225.752797
6343.448778,-2812.782580,-9844.739029,995.924147
6343.449101,-3775.050304,-9252.574275,842.705048
6343.449423,-4367.215058,-9104.533087,689.485948
6343.449746,-4145.153275,-9030.512492,-229.828649
6343.450069,-3701.029710,-9622.677246,-1072.533697
6343.450391,-3997.112087,-8586.388927,-1455.581446
6343.450714,-4293.194464,-8290.306550,-383.047749
6343.451036,-3552.988522,-8290.306550,-153.219100
6343.451359,-2516.700203,-8216.285956,-995.924147
6343.451682,-2368.659014,-8734.430116,0.000000
6343.452004,-2442.679609,-9252.574275,76.609550
6343.452327,-2516.700203,-9252.574275,1072.533697
6343.452649,-2516.700203,-9474.636058,1072.533697
6343.452972,-2368.659014,-10362.883188,842.705048
6343.453294,-3108.864956,-10066.800811,995.924147
6343.453617,-3182.885551,-10066.800811,919.314598
6343.453940,-3108.864956,-9548.656652,0.000000
6343.454262,-3034.844362,-9252.574275,-229.828649
6343.454585,-3701.029710,-8956.491898,-1225.752797
6343.454907,-3404.947333,-8808.450710,-153.219100
6343.455230,-3034.844362,-8808.450710,-383.047749
6343.455553,-2960.823768,-8364.327145,0.000000
6343.455875,-3182.885551,-8512.368333,-383.047749
6343.456198,-3330.926739,-8586.388927,-153.219100
6343.456520,-3330.926739,-8956.491898,76.609550
6343.456843,-3256.906145,-8882.471304,229.828649
6343.457166,-3552.988522,-9400.615463,919.314598
6343.457488,-3627.009116,-9178.553681,306.438199
6343.457811,-3330.926739,-9474.636058,459.657299
6343.458133,-3775.050304,-9548.656652,536.266849
6343.458456,-3997.112087,-9474.636058,459.657299
6343.458778,-4145.153275,-8660.409521,-306.438199
6343.459101,-3849.070898,-8438.347739,-306.438199
6343.459424,-4071.132681,-8142.265362,-612.876398
6343.459746,-4145.153275,-8364.327145,0.000000
6343.460069,-4071.132681,-8142.265362,0.000000
6343.460391,-3552.988522,-8438.347739,-842.705048
6343.460714,-3701.029710,-8586.388927,-689.485948
6343.461037,-3552.988522,-8956.491898,76.609550
6343.461359,-3478.967927,-9030.512492,383.047749
6343.461682,-3552.988522,-8882.471304,153.219100
6343.462004,-2960.823768,-9326.594869,306.438199
6343.462327,-3256.906145,-8956.491898,306.438199
6343.462650,-2886.803174,-9252.574275,306.438199
6343.462972,-3330.926739,-9178.553681,153.219100
6343.463295,-2960.823768,-9252.574275,-306.438199
6343.463617,-3478.967927,-8734.430116,0.000000
6343.463940,-3182.885551,-8142.265362,-459.657299
6343.464262,-3552.988522,-8216.285956,229.828649
6343.464585,-4071.132681,-8290.306550,-306.438199
6343.464908,-3404.947333,-8660.409521,-842.705048
6343.465230,-3552.988522,-8364.327145,-229.828649
6343.465553,-3256.906145,-8438.347739,-229.828649
6343.465875,-3330.926739,-8660.409521,306.438199
6343.466198,-2516.700203,-8956.491898,0.000000
6343.466521,-2664.741391,-8808.450710,383.047749
6343.466843,-2590.720797,-8882.471304,842.705048
6343.467166,-2886.803174,-9326.594869,459.657299
6343.467488,-3034.844362,-9400.615463,459.657299
6343.467811,-2960.823768,-9474.636058,229.828649
6343.468134,-3182.885551,-9474.636058,76.609550
6343.468456,-3478.967927,-8882.471304,306.438199
6343.468779,-3849.070898,-8882.471304,0.000000
6343.469101,-3256.906145,-9178.553681,-766.095498
6343.469424,-3775.050304,-9252.574275,-229.828649
6343.469746,-3627.009116,-9104.533087,0.000000
6343.470069,-3701.029710,-9178.553681,-229.828649
6343.470392,-3552.988522,-9326.594869,-383.047749
6343.470714,-3552.988522,-9252.574275,76.609550
6343.471037,-3330.926739,-9030.512492,-383.047749
6343.471359,-3701.029710,-8956.491898,383.047749
6343.471682,-3552.988522,-9400.615463,0.000000
6343.472005,-3775.050304,-9326.594869,76.609550
6343.472327,-3849.070898,-9400.615463,383.047749
6343.472650,-3627.009116,-9400.615463,153.219100
6343.472972,-3552.988522,-9548.656652,536.266849
6343.473295,-3478.967927,-9178.553681,459.657299
6343.473618,-3923.091493,-8956.491898,0.000000
6343.473940,-3997.112087,-8734.430116,306.438199
6343.474263,-3627.009116,-8882.471304,0.000000
6343.474585,-3552.988522,-8734.430116,0.000000
6343.474908,-3108.864956,-8808.450710,229.828649
6343.475230,-2960.823768,-8882.471304,612.876398
6343.475553,-2960.823768,-8586.388927,459.657299
6343.475876,-2368.659014,-9474.636058,919.314598
6343.476198,-2812.782580,-9030.512492,689.485948
6343.476521,-3034.844362,-9030.512492,1225.752797
6343.476843,-3108.864956,-9104.533087,995.924147
6343.477166,-3404.947333,-8956.491898,612.876398
6343.477489,-3849.070898,-8660.409521,76.609550
6343.477811,-4071.132681,-8142.265362,383.047749
6343.478134,-3701.029710,-8660.409521,153.219100
6343.478456,-4441.235652,-8438.347739,383.047749
