#time,accel_x,accel_y,accel_z
1265.671086,-3627.009116,-8882.471304,766.095498
1265.671399,-3256.906145,-8882.471304,1072.533697
1265.671711,-3552.988522,-8808.450710,1302.362347
1265.672024,-3701.029710,-8882.471304,1225.752797
1265.672337,-3552.988522,-9030.512492,1149.143247
1265.672650,-3849.070898,-8808.450710,995.924147
1265.672962,-3627.009116,-8660.409521,995.924147
1265.673275,-3627.009116,-8882.471304,1072.533697
1265.673588,-3701.029710,-8808.450710,919.314598
1265.673901,-3627.009116,-8512.368333,842.705048
1265.674213,-3627.009116,-8956.491898,766.095498
1265.674526,-3478.967927,-8734.430116,1149.143247
1265.674839,-3478.967927,-9030.512492,842.705048
1265.675151,-3478.967927,-8956.491898,689.485948
1265.675464,-3701.029710,-8808.450710,919.314598
1265.675777,-3627.009116,-8882.471304,766.095498
1265.676090,-3552.988522,-8808.450710,1072.533697
1265.676402,-3775.050304,-8586.388927,1072.533697
1265.676715,-3330.926739,-9030.512492,766.095498
1265.677028,-3923.091493,-8882.471304,1225.752797
1265.677341,-3701.029710,-8956.491898,842.705048
1265.677653,-3701.029710,-8808.450710,612.876398
1265.677966,-3775.050304,-8660.409521,842.705048
1265.678279,-3627.009116,-8956.491898,842.705048
1265.678591,-3775.050304,-8512.368333,689.485948
1265.678904,-3849.070898,-8660.409521,459.657299
1265.679217,-3478.967927,-8660.409521,1225.752797
1265.679530,-3552.988522,-8882.471304,1225.752797
1265.679842,-3775.050304,-8660.409521,766.095498
1265.680155,-3404.947333,-8882.471304,919.314598
1265.680468,-3775.050304,-8956.491898,842.705048
1265.680781,-3849.070898,-8882.471304,766.095498
1265.681093,-3923.091493,-8882.471304,1072.533697
1265.681406,-3627.009116,-8660.409521,536.266849
1265.681719,-3627.009116,-8808.450710,689.485948
1265.682031,-3478.967927,-8808.450710,842.705048
1265.682344,-3478.967927,-8956.491898,919.314598
1265.682657,-3627.009116,-8956.491898,919.314598
1265.682970,-3627.009116,-8734.430116,842.705048
1265.683282,-3552.988522,-8586.388927,689.485948
1265.683595,-3775.050304,-8660.409521,995.924147
1265.683908,-3404.947333,-8808.450710,842.705048
1265.684221,-3552.988522,-8808.450710,689.485948
1265.684533,-3330.926739,-8734.430116,842.705048
1265.684846,-3775.050304,-8734.430116,995.924147
1265.685159,-3775.050304,-8956.491898,919.314598
1265.685471,-3627.009116,-8956.491898,919.314598
1265.685784,-3627.009116,-8882.471304,612.876398
1265.686097,-3701.029710,-8956.491898,842.705048
1265.686410,-3478.967927,-8438.347739,689.485948
1265.686722,-3552.988522,-8808.450710,842.705048
1265.687035,-3330.926739,-8956.491898,766.095498
1265.687348,-3701.029710,-8956.491898,612.876398
1265.687660,-3627.009116,-8660.409521,689.485948
1265.687973,-3701.029710,-8734.430116,766.095498
1265.688286,-3627.009116,-8586.388927,766.095498
1265.688599,-3256.906145,-8734.430116,766.095498
1265.688911,-3256.906145,-8660.409521,1302.362347
1265.689224,-3478.967927,-9104.533087,1149.143247
1265.689537,-3701.029710,-8808.450710,1149.143247
1265.689850,-3627.009116,-9030.512492,766.095498
1265.690162,-3701.029710,-8956.491898,919.314598
1265.690475,-3627.009116,-8808.450710,766.095498
1265.690788,-3404.947333,-8882.471304,919.314598
1265.691100,-3330.926739,-8882.471304,766.095498
1265.691413,-3404.947333,-8438.347739,919.314598
1265.691726,-3404.947333,-8364.327145,842.705048
1265.692039,-3701.029710,-8882.471304,995.924147
1265.692351,-3627.009116,-8956.491898,689.485948
1265.692664,-3627.009116,-8882.471304,919.314598
1265.692977,-3701.029710,-8734.430116,1762.019645
1265.693290,-3627.009116,-8734.430116,842.705048
1265.693602,-3701.029710,-8882.471304,612.876398
1265.693915,-3627.009116,-8734.430116,1302.362347
1265.694228,-3404.947333,-8956.491898,689.485948
1265.694540,-3478.967927,-8808.450710,689.485948
1265.694853,-3627.009116,-8660.409521,842.705048
1265.695166,-3701.029710,-8734.430116,919.314598
1265.695479,-3701.029710,-8734.430116,612.876398
1265.695791,-3404.947333,-8660.409521,1149.143247
1265.696104,-3034.844362,-8956.491898,842.705048
1265.696417,-2812.782580,-8660.409521,842.705048
1265.696730,-3701.029710,-8438.347739,459.657299
1265.697042,-3701.029710,-9104.533087,689.485948
1265.697355,-3552.988522,-9326.594869,842.705048
1265.697668,-3849.070898,-8734.430116,842.705048
1265.697980,-3775.050304,-9326.594869,1225.752797
1265.698293,-3849.070898,-8660.409521,1149.143247
1265.698606,-3478.967927,-8660.409521,919.314598
1265.698919,-3404.947333,-8290.306550,383.047749
1265.699231,-3923.091493,-8660.409521,229.828649
1265.699544,-3701.029710,-8882.471304,229.828649
1265.699857,-3552.988522,-8734.430116,383.047749
1265.700170,-3404.947333,-8512.368333,842.705048
1265.700482,-3330.926739,-8216.285956,766.095498
1265.700795,-3552.988522,-8586.388927,1225.752797
1265.701108,-3256.906145,-9104.533087,1378.971896
1265.701420,-3256.906145,-8956.491898,995.924147
1265.701733,-3552.988522,-9178.553681,612.876398
1265.702046,-3330.926739,-9030.512492,612.876398
1265.702359,-3627.009116,-8956.491898,919.314598
1265.702671,-3627.009116,-8956.491898,1378.971896
1265.702984,-3923.091493,-9178.553681,1225.752797
1265.703297,-3404.947333,-9326.594869,842.705048
1265.703609,-3330.926739,-9104.533087,459.657299
1265.703922,-3627.009116,-9104.533087,153.219100
1265.704235,-3478.967927,-8734.430116,459.657299
1265.704548,-3849.070898,-8216.285956,612.876398
1265.704860,-3404.947333,-8956.491898,766.095498
1265.705173,-3256.906145,-8882.471304,306.438199
1265.705486,-3404.947333,-8438.347739,0.000000
1265.705799,-4293.194464,-8586.388927,612.876398
1265.706111,-3478.967927,-9252.574275,1302.362347
1265.706424,-3182.885551,-9178.553681,306.438199
1265.706737,-3182.885551,-8734.430116,536.266849
1265.707049,-3775.050304,-8956.491898,1455.581446
1265.707362,-3775.050304,-9474.636058,1225.752797
1265.707675,-3330.926739,-8956.491898,459.657299
1265.707988,-3775.050304,-8290.306550,459.657299
1265.708300,-3849.070898,-8364.327145,306.438199
1265.708613,-1258.350101,-10140.821405,-612.876398
1265.708926,-1184.329507,-9178.553681,-383.047749
1265.709239,-2368.659014,-8512.368333,383.047749
1265.709551,-2516.700203,-7994.224174,995.924147
1265.709864,-2812.782580,-9696.697840,1302.362347
1265.710177,-1998.556043,-9992.780217,383.047749
1265.710489,-740.205942,-9326.594869,-383.047749
1265.710802,-1036.288319,-8956.491898,689.485948
1265.711115,-2368.659014,-9548.656652,1532.190996
1265.711428,-2886.803174,-9622.677246,2145.067394
1265.711740,-2590.720797,-9400.615463,612.876398
1265.712053,-3034.844362,-9696.697840,-153.219100
1265.712366,-4071.132681,-9326.594869,-995.924147
1265.712679,-3330.926739,-8364.327145,-1072.533697
1265.712991,-2960.823768,-8216.285956,-306.438199
1265.713304,-4145.153275,-8586.388927,229.828649
1265.713617,-4219.173869,-8438.347739,306.438199
1265.713929,-3775.050304,-8734.430116,-842.705048
1265.714242,-2516.700203,-9252.574275,-1455.581446
1265.714555,-3256.906145,-8808.450710,-689.485948
1265.714868,-3330.926739,-9104.533087,536.266849
1265.715180,-3552.988522,-8734.430116,306.438199
1265.715493,-2516.700203,-9326.594869,0.000000
1265.715806,-3330.926739,-9548.656652,153.219100
1265.716118,-3552.988522,-9252.574275,0.000000
1265.716431,-3330.926739,-9474.636058,-766.095498
1265.716744,-3849.070898,-9770.718434,-306.438199
1265.717057,-3923.091493,-9252.574275,76.609550
1265.717369,-3849.070898,-9326.594869,229.828649
1265.717676,-4145.153275,-9326.594869,842.705048
1265.717989,-3627.009116,-8882.471304,0.000000
1265.718302,-3552.988522,-8290.306550,-1149.143247
1265.718614,-3849.070898,-8882.471304,-995.924147
1265.718927,-4219.173869,-8660.409521,0.000000
1265.719240,-4071.132681,-8364.327145,383.047749
1265.719552,-3775.050304,-8956.491898,536.266849
1265.719865,-4219.173869,-9104.533087,766.095498
1265.720178,-3552.988522,-9030.512492,995.924147
1265.720491,-3330.926739,-9104.533087,0.000000
1265.720803,-3478.967927,-9548.656652,612.876398
1265.721116,-3997.112087,-9326.594869,842.705048
1265.721429,-3849.070898,-9252.574275,1149.143247
1265.721742,-3404.947333,-9400.615463,919.314598
1265.722054,-3108.864956,-9178.553681,689.485948
1265.722367,-3627.009116,-8882.471304,1685.410096
1265.722680,-4145.153275,-8660.409521,1915.238745
1265.722993,-3775.050304,-8734.430116,1608.800546
1265.723305,-3330.926739,-8882.471304,1302.362347
1265.723618,-3849.070898,-8438.347739,1455.581446
1265.723931,-4071.132681,-8586.388927,1838.629195
1265.724243,-3849.070898,-8364.327145,1608.800546
1265.724556,-3404.947333,-8586.388927,1608.800546
1265.724869,-3997.112087,-8438.347739,2145.067394
1265.725182,-4367.215058,-7772.162391,1838.629195
1265.725494,-3701.029710,-7994.224174,1149.143247
1265.725807,-3404.947333,-8808.450710,1762.019645
1265.726120,-3182.885551,-8512.368333,1532.190996
1265.726433,-3034.844362,-8586.388927,2298.286494
1265.726745,-3034.844362,-8660.409521,2528.115143
1265.727058,-3182.885551,-8734.430116,2451.505594
1265.727371,-3182.885551,-8586.388927,2068.457845
1265.727683,-2516.700203,-8586.388927,1762.019645
1265.727996,-2442.679609,-8142.265362,2298.286494
1265.728309,-2664.741391,-8734.430116,2604.724693
1265.728622,-3034.844362,-8660.409521,2145.067394
1265.728934,-3108.864956,-8882.471304,2221.676944
1265.729247,-3182.885551,-8660.409521,2221.676944
1265.729560,-3256.906145,-8734.430116,1685.410096
1265.729873,-2516.700203,-8734.430116,995.924147
1265.730185,-2738.761985,-8808.450710,1225.752797
1265.730498,-2738.761985,-8956.491898,1608.800546
1265.730811,-3330.926739,-8660.409521,2221.676944
1265.731123,-3478.967927,-8660.409521,1532.190996
1265.731436,-3478.967927,-8660.409521,1225.752797
1265.731749,-3701.029710,-8808.450710,919.314598
1265.732062,-3701.029710,-8734.430116,842.705048
1265.732374,-3701.029710,-8882.471304,1302.362347
1265.732687,-4219.173869,-8512.368333,536.266849
1265.733000,-4071.132681,-8290.306550,1072.533697
1265.733313,-4219.173869,-8512.368333,842.705048
1265.733625,-4293.194464,-8660.409521,919.314598
1265.733938,-4219.173869,-8734.430116,612.876398
1265.734251,-4589.276840,-8882.471304,459.657299
1265.734564,-4663.297435,-8808.450710,1072.533697
1265.734876,-4515.256246,-8586.388927,842.705048
1265.735189,-4219.173869,-8660.409521,766.095498
1265.735502,-4589.276840,-8882.471304,536.266849
1265.735814,-4515.256246,-8882.471304,459.657299
1265.736127,-4441.235652,-8808.450710,76.609550
1265.736440,-4367.215058,-8808.450710,76.609550
1265.736753,-4589.276840,-8734.430116,153.219100
1265.737065,-3923.091493,-8882.471304,383.047749
1265.737378,-4145.153275,-8660.409521,383.047749
1265.737691,-4071.132681,-9178.553681,459.657299
1265.738004,-4219.173869,-8882.471304,842.705048
1265.738316,-4367.215058,-9030.512492,459.657299
1265.738629,-4441.235652,-9104.533087,0.000000
1265.738942,-4367.215058,-9030.512492,76.609550
1265.739254,-4071.132681,-8956.491898,459.657299
1265.739567,-3997.112087,-9030.512492,383.047749
1265.739880,-4071.132681,-9400.615463,459.657299
1265.740193,-4515.256246,-8512.368333,536.266849
1265.740505,-4219.173869,-8808.450710,612.876398
1265.740818,-3849.070898,-8956.491898,689.485948
1265.741131,-3849.070898,-8586.388927,612.876398
1265.741444,-3552.988522,-8512.368333,1072.533697
1265.741756,-3701.029710,-9030.512492,1149.143247
1265.742069,-3330.926739,-8586.388927,919.314598
1265.742382,-3108.864956,-8734.430116,1378.971896
1265.742694,-3478.967927,-8808.450710,1149.143247
1265.743007,-3108.864956,-8734.430116,1072.533697
1265.743320,-3627.009116,-8956.491898,1608.800546
1265.743633,-3552.988522,-9104.533087,1838.629195
1265.743945,-3256.906145,-9178.553681,1455.581446
1265.744258,-3478.967927,-9030.512492,1455.581446
1265.744571,-3330.926739,-8512.368333,1455.581446
1265.744884,-3404.947333,-8882.471304,2145.067394
1265.745196,-3552.988522,-8290.306550,1302.362347
1265.745509,-3627.009116,-8512.368333,1915.238745
1265.745822,-3701.029710,-8512.368333,1532.190996
1265.746135,-3701.029710,-8586.388927,1685.410096
1265.746447,-3627.009116,-8512.368333,1302.362347
1265.746760,-3849.070898,-8512.368333,2068.457845
1265.747073,-4071.132681,-8068.244768,1838.629195
1265.747385,-3849.070898,-8438.347739,1608.800546
1265.747698,-3330.926739,-8290.306550,1685.410096
1265.748011,-3775.050304,-8512.368333,1685.410096
1265.748324,-3330.926739,-8438.347739,1608.800546
1265.748636,-3478.967927,-8512.368333,1685.410096
1265.748949,-3701.029710,-8438.347739,1455.581446
1265.749262,-3330.926739,-8364.327145,1685.410096
1265.749575,-3552.988522,-7994.224174,1762.019645
1265.749887,-3404.947333,-8660.409521,1762.019645
1265.750200,-3627.009116,-8438.347739,2221.676944
1265.750513,-4071.132681,-8734.430116,2298.286494
1265.750825,-3775.050304,-8882.471304,1762.019645
1265.751138,-3923.091493,-8734.430116,1685.410096
1265.751451,-4293.194464,-8660.409521,1608.800546
1265.751764,-4441.235652,-8290.306550,1685.410096
1265.752076,-3923.091493,-8364.327145,995.924147
1265.752389,-4145.153275,-8364.327145,459.657299
1265.752702,-4145.153275,-7994.224174,995.924147
1265.753015,-3997.112087,-8586.388927,1302.362347
1265.753327,-4293.194464,-8512.368333,1072.533697
1265.753640,-4293.194464,-8216.285956,1149.143247
1265.753953,-4589.276840,-8364.327145,1378.971896
1265.754265,-3775.050304,-8734.430116,1072.533697
1265.754578,-3849.070898,-8512.368333,1532.190996
1265.754891,-4663.297435,-8512.368333,1532.190996
1265.755204,-4737.318029,-8956.491898,2145.067394
1265.755516,-3775.050304,-9178.553681,1455.581446
1265.755829,-4145.153275,-8586.388927,689.485948
1265.756142,-4737.318029,-8660.409521,1072.533697
1265.756455,-3997.112087,-9326.594869,1302.362347
1265.756767,-3627.009116,-9030.512492,766.095498
1265.757080,-3552.988522,-8290.306550,919.314598
1265.757393,-3923.091493,-8586.388927,766.095498
1265.757706,-3256.906145,-8734.430116,536.266849
1265.758018,-3627.009116,-8956.491898,306.438199
1265.758331,-3997.112087,-8808.450710,766.095498
1265.758644,-3923.091493,-9030.512492,1072.533697
1265.758956,-3404.947333,-9252.574275,459.657299
1265.759269,-3849.070898,-8586.388927,306.438199
1265.759582,-3404.947333,-8956.491898,1302.362347
1265.759895,-3108.864956,-9104.533087,1225.752797
1265.760207,-3627.009116,-8808.450710,612.876398
1265.760520,-3552.988522,-9030.512492,153.219100
1265.760833,-3627.009116,-8956.491898,0.000000
1265.761146,-3478.967927,-9326.594869,229.828649
1265.761458,-3627.009116,-8586.388927,842.705048
1265.761771,-3478.967927,-9178.553681,1838.629195
1265.762084,-3701.029710,-9326.594869,1302.362347
1265.762396,-3775.050304,-9178.553681,1149.143247
1265.762709,-3849.070898,-9030.512492,842.705048
1265.763022,-3701.029710,-8882.471304,842.705048
1265.763335,-3552.988522,-8882.471304,689.485948
1265.763647,-3330.926739,-8364.327145,766.095498
1265.763960,-3404.947333,-8290.306550,1225.752797
1265.764273,-3552.988522,-8512.368333,2068.457845
1265.764586,-3330.926739,-8660.409521,689.485948
1265.764898,-3552.988522,-8660.409521,766.095498
1265.765211,-3849.070898,-8586.388927,612.876398
1265.765524,-3627.009116,-8882.471304,842.705048
1265.765836,-3404.947333,-8660.409521,995.924147
1265.766149,-3108.864956,-8438.347739,1149.143247
1265.766462,-3330.926739,-9104.533087,1762.019645
1265.766775,-3849.070898,-8438.347739,1838.629195
1265.767087,-3849.070898,-8808.450710,1455.581446
1265.767400,-4071.132681,-9400.615463,1302.362347
1265.767713,-4145.153275,-8734.430116,1455.581446
1265.768026,-3923.091493,-8216.285956,1378.971896
1265.768338,-3849.070898,-8512.368333,1149.143247
1265.768651,-3478.967927,-9030.512492,1378.971896
1265.768964,-3478.967927,-8438.347739,0.000000
1265.769277,-3404.947333,-7920.203579,459.657299
1265.769589,-3478.967927,-8660.409521,842.705048
1265.769902,-3627.009116,-8808.450710,1455.581446
1265.770215,-3034.844362,-8882.471304,1532.190996
1265.770527,-3034.844362,-8808.450710,1532.190996
1265.770840,-3627.009116,-9104.533087,995.924147
1265.771153,-4071.132681,-9400.615463,1532.190996
1265.771466,-3330.926739,-8290.306550,919.314598
1265.771778,-3627.009116,-9104.533087,995.924147
1265.772091,-4441.235652,-8734.430116,919.314598
1265.772404,-4145.153275,-8882.471304,612.876398
1265.772717,-3404.947333,-8734.430116,306.438199
1265.773029,-3701.029710,-8734.430116,459.657299
1265.773342,-3849.070898,-8586.388927,306.438199
1265.773655,-3256.906145,-8808.450710,459.657299
1265.773967,-3627.009116,-8512.368333,995.924147
1265.774280,-3330.926739,-8438.347739,919.314598
1265.774593,-3701.029710,-8734.430116,1378.971896
1265.774906,-3701.029710,-8882.471304,1455.581446
1265.775218,-3552.988522,-9474.636058,1455.581446
1265.775531,-3849.070898,-9178.553681,919.314598
1265.775844,-3997.112087,-8438.347739,1455.581446
1265.776157,-4219.173869,-8956.491898,1685.410096
1265.776469,-3182.885551,-9326.594869,1685.410096
1265.776782,-3404.947333,-8734.430116,842.705048
1265.777095,-4071.132681,-8142.265362,919.314598
1265.777407,-4589.276840,-8660.409521,1532.190996
1265.777720,-3923.091493,-9030.512492,766.095498
1265.778033,-3404.947333,-8586.388927,383.047749
1265.778346,-3627.009116,-8068.244768,995.924147
1265.778658,-3478.967927,-8956.491898,1838.629195
1265.778971,-3330.926739,-9030.512492,1915.238745
1265.779284,-3404.947333,-8882.471304,2068.457845
1265.779597,-3923.091493,-9104.533087,2068.457845
1265.779909,-4145.153275,-8956.491898,1915.238745
1265.780222,-4071.132681,-8956.491898,1532.190996
1265.780535,-3775.050304,-8660.409521,1302.362347
1265.780848,-4367.215058,-8586.388927,2374.896044
1265.781160,-4885.359217,-8512.368333,2528.115143
1265.781473,-4663.297435,-8216.285956,1915.238745
1265.781786,-4737.318029,-7476.080014,536.266849
1265.782098,-4737.318029,-8068.244768,919.314598
1265.782411,-5033.400406,-7772.162391,1072.533697
1265.782724,-4737.318029,-7698.141797,1302.362347
1265.783037,-4367.215058,-7846.182985,1532.190996
1265.783349,-4589.276840,-7698.141797,1838.629195
1265.783662,-5107.421000,-7772.162391,2145.067394
1265.783975,-4663.297435,-8142.265362,1915.238745
1265.784288,-4959.379811,-8438.347739,1149.143247
1265.784600,-4589.276840,-8882.471304,1762.019645
1265.784913,-4811.338623,-8438.347739,1915.238745
1265.785226,-4959.379811,-8438.347739,2068.457845
1265.785538,-4737.318029,-8586.388927,2145.067394
1265.785851,-4367.215058,-8586.388927,1532.190996
1265.786164,-4589.276840,-8364.327145,1378.971896
1265.786477,-4663.297435,-8438.347739,1608.800546
1265.786789,-3849.070898,-7920.203579,1072.533697
1265.787102,-3182.885551,-8290.306550,995.924147
1265.787415,-3552.988522,-8142.265362,1225.752797
1265.787728,-3330.926739,-8364.327145,1455.581446
1265.788040,-2960.823768,-8364.327145,1302.362347
1265.788353,-2664.741391,-8586.388927,1302.362347
1265.788666,-2812.782580,-8956.491898,1302.362347
1265.788978,-2886.803174,-9252.574275,1762.019645
1265.789291,-2960.823768,-9400.615463,1991.848295
1265.789604,-2886.803174,-9474.636058,1762.019645
1265.789917,-3256.906145,-9548.656652,1302.362347
1265.790229,-3478.967927,-9474.636058,995.924147
1265.790542,-3034.844362,-9400.615463,459.657299
1265.790855,-3478.967927,-9252.574275,459.657299
1265.791168,-3627.009116,-9178.553681,-383.047749
1265.791480,-3330.926739,-8586.388927,306.438199
1265.791793,-3404.947333,-8734.430116,306.438199
1265.792106,-3256.906145,-8660.409521,459.657299
1265.792419,-3108.864956,-9104.533087,459.657299
1265.792731,-3404.947333,-8956.491898,689.485948
1265.793044,-3330.926739,-8956.491898,842.705048
1265.793357,-3256.906145,-8882.471304,1149.143247
1265.793669,-3552.988522,-8882.471304,1072.533697
1265.793982,-3627.009116,-9252.574275,995.924147
1265.794295,-4071.132681,-9178.553681,842.705048
1265.794608,-4071.132681,-9178.553681,536.266849
1265.794920,-4145.153275,-9326.594869,383.047749
1265.795233,-3849.070898,-9474.636058,459.657299
1265.795546,-4071.132681,-9030.512492,459.657299
1265.795859,-4145.153275,-9030.512492,766.095498
1265.796171,-3997.112087,-8882.471304,1149.143247
1265.796484,-3923.091493,-8808.450710,919.314598
1265.796797,-3923.091493,-8438.347739,612.876398
1265.797109,-4071.132681,-8364.327145,612.876398
1265.797422,-3923.091493,-8512.368333,536.266849
1265.797735,-3775.050304,-8512.368333,842.705048
1265.798048,-4145.153275,-8438.347739,1378.971896
1265.798360,-4293.194464,-8290.306550,1685.410096
1265.798673,-4293.194464,-8660.409521,842.705048
1265.798986,-4589.276840,-8882.471304,1225.752797
1265.799299,-4515.256246,-8808.450710,1302.362347
1265.799611,-4589.276840,-8660.409521,842.705048
1265.799924,-4515.256246,-8586.388927,995.924147
1265.800237,-4589.276840,-8216.285956,689.485948
1265.800549,-4441.235652,-8142.265362,1072.533697
1265.800862,-4219.173869,-8364.327145,919.314598
1265.801175,-3923.091493,-8142.265362,1072.533697
1265.801488,-3849.070898,-8438.347739,995.924147
1265.801800,-3923.091493,-8512.368333,1072.533697
1265.802113,-3923.091493,-8734.430116,1455.581446
1265.802426,-3701.029710,-8438.347739,1302.362347
1265.802739,-3997.112087,-8290.306550,1685.410096
1265.803051,-3478.967927,-8956.491898,1838.629195
1265.803364,-3701.029710,-8808.450710,1762.019645
1265.803677,-3701.029710,-8734.430116,1225.752797
1265.803990,-3701.029710,-8808.450710,919.314598
1265.804302,-3627.009116,-8660.409521,1378.971896
1265.804615,-3923.091493,-8660.409521,1608.800546
1265.804928,-3849.070898,-8438.347739,1838.629195
1265.805240,-4071.132681,-8660.409521,2145.067394
1265.805553,-3997.112087,-8586.388927,1915.238745
1265.805866,-3701.029710,-8512.368333,1915.238745
1265.806179,-3701.029710,-8364.327145,1225.752797
1265.806491,-3701.029710,-8438.347739,1302.362347
1265.806804,-3478.967927,-8438.347739,919.314598
1265.807117,-3552.988522,-8586.388927,995.924147
1265.807430,-3701.029710,-8364.327145,1378.971896
1265.807742,-3404.947333,-8512.368333,1762.019645
1265.808055,-3182.885551,-8956.491898,1532.190996
1265.808368,-2960.823768,-9474.636058,1455.581446
1265.808680,-3330.926739,-9326.594869,1532.190996
1265.808993,-3034.844362,-9030.512492,1378.971896
1265.809306,-3182.885551,-8660.409521,1072.533697
1265.809619,-3330.926739,-8956.491898,1302.362347
1265.809931,-3627.009116,-9030.512492,1225.752797
1265.810244,-3404.947333,-8734.430116,1532.190996
1265.810557,-4145.153275,-8438.347739,766.095498
1265.810870,-4145.153275,-8808.450710,1072.533697
1265.811182,-3849.070898,-8808.450710,1532.190996
1265.811495,-3997.112087,-9030.512492,1302.362347
1265.811808,-4293.194464,-8808.450710,1302.362347
1265.812120,-4367.215058,-8956.491898,995.924147
1265.812433,-4515.256246,-8734.430116,1072.533697
1265.812746,-4589.276840,-8660.409521,995.924147
1265.813059,-3923.091493,-8660.409521,1072.533697
1265.813371,-4367.215058,-8808.450710,1455.581446
1265.813684,-4219.173869,-8586.388927,1302.362347
1265.813997,-4071.132681,-8512.368333,1149.143247
1265.814310,-3923.091493,-8586.388927,842.705048
1265.814622,-4145.153275,-8660.409521,1149.143247
1265.814935,-3997.112087,-8586.388927,229.828649
1265.815248,-3701.029710,-8290.306550,536.266849
1265.815561,-3627.009116,-8660.409521,995.924147
1265.815873,-3552.988522,-8956.491898,1225.752797
1265.816186,-3256.906145,-9030.512492,766.095498
1265.816499,-3478.967927,-8734.430116,689.485948
1265.816811,-3552.988522,-8956.491898,995.924147
1265.817124,-3701.029710,-9030.512492,842.705048
1265.817437,-3182.885551,-8956.491898,689.485948
1265.817750,-2886.803174,-8660.409521,612.876398
1265.818062,-2738.761985,-8512.368333,306.438199
1265.818375,-2738.761985,-8660.409521,76.609550
1265.818688,-2590.720797,-8956.491898,0.000000
1265.819001,-2368.659014,-9030.512492,0.000000
1265.819313,-2368.659014,-9104.533087,76.609550
1265.819626,-2590.720797,-9474.636058,153.219100
1265.819939,-2368.659014,-9252.574275,995.924147
1265.820251,-2368.659014,-9326.594869,306.438199
1265.820564,-2368.659014,-9252.574275,766.095498
1265.820877,-2738.761985,-9400.615463,0.000000
1265.821190,-2960.823768,-9474.636058,-153.219100
1265.821502,-3182.885551,-9548.656652,-153.219100
1265.821815,-3775.050304,-9548.656652,76.609550
1265.822128,-3701.029710,-9030.512492,0.000000
1265.822441,-3849.070898,-8660.409521,0.000000
1265.822753,-3997.112087,-8660.409521,-229.828649
1265.823066,-3775.050304,-8512.368333,-536.266849
1265.823379,-3775.050304,-8586.388927,-306.438199
1265.823691,-3552.988522,-8808.450710,-306.438199
1265.824004,-3552.988522,-8660.409521,-229.828649
1265.824317,-3034.844362,-8734.430116,0.000000
1265.824630,-2960.823768,-8512.368333,76.609550
1265.824942,-3701.029710,-9178.553681,995.924147
1265.825255,-3182.885551,-9252.574275,1072.533697
1265.825568,-3330.926739,-9178.553681,459.657299
1265.825881,-3182.885551,-9622.677246,76.609550
1265.826193,-3478.967927,-9548.656652,76.609550
1265.826506,-3478.967927,-9400.615463,229.828649
1265.826819,-3627.009116,-8956.491898,689.485948
1265.827132,-3775.050304,-9030.512492,306.438199
1265.827444,-3330.926739,-9030.512492,689.485948
1265.827757,-3775.050304,-8660.409521,459.657299
1265.828070,-3775.050304,-8956.491898,306.438199
1265.828382,-3923.091493,-8808.450710,612.876398
1265.828695,-3923.091493,-8512.368333,536.266849
1265.829008,-3552.988522,-8660.409521,459.657299
1265.829321,-3182.885551,-8586.388927,383.047749
1265.829633,-3552.988522,-8660.409521,842.705048
1265.829946,-3404.947333,-8734.430116,1378.971896
1265.830259,-3701.029710,-8660.409521,995.924147
1265.830572,-3627.009116,-9252.574275,919.314598
1265.830884,-3627.009116,-9252.574275,995.924147
1265.831197,-3923.091493,-9030.512492,1225.752797
1265.831510,-3701.029710,-8882.471304,842.705048
1265.831823,-3627.009116,-9252.574275,842.705048
1265.832135,-4071.132681,-8660.409521,1378.971896
1265.832448,-3849.070898,-8438.347739,1225.752797
1265.832761,-3256.906145,-8660.409521,919.314598
1265.833074,-3552.988522,-8660.409521,919.314598
1265.833386,-3256.906145,-8512.368333,1225.752797
1265.833699,-3182.885551,-8364.327145,1302.362347
1265.834012,-3182.885551,-8438.347739,1302.362347
1265.834325,-2886.803174,-8660.409521,1608.800546
1265.834637,-2886.803174,-8290.306550,1225.752797
1265.834950,-2442.679609,-8586.388927,1302.362347
1265.835263,-3182.885551,-8734.430116,1302.362347
1265.835576,-2812.782580,-9030.512492,1378.971896
1265.835888,-2886.803174,-9104.533087,1455.581446
1265.836201,-2960.823768,-9252.574275,1455.581446
1265.836514,-3108.864956,-9252.574275,1532.190996
1265.836827,-3256.906145,-9252.574275,1608.800546
1265.837139,-3108.864956,-8882.471304,1072.533697
1265.837452,-2960.823768,-8956.491898,766.095498
1265.837765,-2886.803174,-8586.388927,766.095498
1265.838077,-3034.844362,-8512.368333,766.095498
1265.838390,-3108.864956,-8734.430116,536.266849
1265.838703,-2886.803174,-8734.430116,689.485948
1265.839016,-2738.761985,-8808.450710,1149.143247
1265.839328,-3182.885551,-8808.450710,919.314598
1265.839641,-2812.782580,-9104.533087,1302.362347
1265.839954,-2738.761985,-9030.512492,1302.362347
1265.840267,-3108.864956,-9326.594869,1149.143247
1265.840579,-3330.926739,-9252.574275,919.314598
1265.840892,-3256.906145,-9252.574275,766.095498
1265.841205,-3404.947333,-8956.491898,612.876398
1265.841518,-3478.967927,-8956.491898,536.266849
1265.841830,-3997.112087,-8808.450710,383.047749
1265.842143,-3478.967927,-8660.409521,0.000000
1265.842456,-3849.070898,-8512.368333,0.000000
1265.842769,-3627.009116,-8808.450710,-306.438199
1265.843081,-3404.947333,-8956.491898,-153.219100
1265.843394,-3627.009116,-9104.533087,0.000000
1265.843707,-3775.050304,-8882.471304,536.266849
1265.844020,-3627.009116,-9104.533087,766.095498
1265.844332,-3701.029710,-9252.574275,0.000000
1265.844645,-3923.091493,-8956.491898,0.000000
1265.844958,-3849.070898,-9178.553681,-229.828649
1265.845271,-3923.091493,-9252.574275,153.219100
1265.845583,-3923.091493,-9474.636058,0.000000
1265.845896,-4145.153275,-9104.533087,0.000000
1265.846209,-3849.070898,-9178.553681,0.000000
1265.846522,-3627.009116,-8808.450710,0.000000
1265.846834,-3923.091493,-8882.471304,229.828649
1265.847147,-4293.194464,-8808.450710,0.000000
1265.847460,-3552.988522,-8808.450710,76.609550
1265.847773,-3330.926739,-8808.450710,-229.828649
1265.848085,-3404.947333,-9030.512492,153.219100
1265.848398,-3552.988522,-8956.491898,306.438199
1265.848711,-3256.906145,-9252.574275,536.266849
1265.849024,-2960.823768,-9474.636058,1072.533697
1265.849336,-3404.947333,-8956.491898,459.657299
1265.849649,-3404.947333,-8956.491898,459.657299
1265.849962,-3330.926739,-9030.512492,229.828649
1265.850275,-3552.988522,-9400.615463,612.876398
1265.850587,-3256.906145,-9474.636058,689.485948
1265.850900,-3552.988522,-9030.512492,612.876398
1265.851213,-3701.029710,-9030.512492,536.266849
1265.851526,-3552.988522,-8956.491898,919.314598
1265.851838,-3182.885551,-8734.430116,536.266849
1265.852151,-3330.926739,-8216.285956,229.828649
1265.852464,-3182.885551,-8364.327145,229.828649
1265.852777,-3108.864956,-8882.471304,919.314598
1265.853089,-2886.803174,-8660.409521,612.876398
1265.853402,-2960.823768,-8512.368333,842.705048
1265.853715,-3108.864956,-8808.450710,1455.581446
1265.854028,-2738.761985,-9104.533087,1225.752797
1265.854340,-2368.659014,-8734.430116,995.924147
1265.854653,-3034.844362,-8808.450710,1149.143247
1265.854966,-3182.885551,-9252.574275,1915.238745
1265.855279,-2960.823768,-9400.615463,1302.362347
1265.855591,-2886.803174,-8956.491898,995.924147
1265.855904,-3182.885551,-8808.450710,842.705048
1265.856217,-3182.885551,-8586.388927,919.314598
1265.856530,-2812.782580,-8808.450710,995.924147
1265.856842,-3330.926739,-9252.574275,1455.581446
1265.857155,-3775.050304,-8438.347739,919.314598
1265.857468,-2886.803174,-8512.368333,919.314598
1265.857781,-2812.782580,-8660.409521,842.705048
1265.858093,-3256.906145,-8512.368333,1072.533697
1265.858406,-3256.906145,-8512.368333,1072.533697
1265.858719,-3256.906145,-8512.368333,919.314598
1265.859032,-3775.050304,-8438.347739,842.705048
1265.859344,-3552.988522,-9326.594869,919.314598
1265.859657,-3552.988522,-8808.450710,1302.362347
1265.859970,-3404.947333,-9252.574275,1532.190996
1265.860283,-3627.009116,-9252.574275,1608.800546
1265.860595,-3627.009116,-9252.574275,1378.971896
1265.860908,-3552.988522,-9326.594869,766.095498
1265.861221,-3627.009116,-8438.347739,536.266849
1265.861534,-3627.009116,-8290.306550,153.219100
1265.861846,-3404.947333,-8734.430116,536.266849
1265.862159,-3552.988522,-8512.368333,459.657299
1265.862472,-3701.029710,-8290.306550,612.876398
1265.862785,-3997.112087,-8660.409521,919.314598
1265.863097,-3923.091493,-9030.512492,842.705048
1265.863410,-3775.050304,-8956.491898,766.095498
1265.863723,-3923.091493,-9030.512492,766.095498
1265.864036,-4367.215058,-8142.265362,1225.752797
1265.864348,-3701.029710,-8882.471304,689.485948
1265.864661,-3552.988522,-8808.450710,459.657299
1265.864974,-3849.070898,-8882.471304,459.657299
1265.865286,-3849.070898,-8882.471304,229.828649
1265.865599,-3404.947333,-8882.471304,-306.438199
1265.865912,-3404.947333,-8586.388927,0.000000
1265.866225,-3404.947333,-8882.471304,0.000000
1265.866537,-3849.070898,-8808.450710,919.314598
1265.866850,-3849.070898,-9178.553681,612.876398
1265.867163,-3701.029710,-9400.615463,766.095498
1265.867476,-3775.050304,-9104.533087,612.876398
1265.867788,-3775.050304,-9326.594869,919.314598
1265.868101,-3701.029710,-9400.615463,919.314598
1265.868414,-3330.926739,-8808.450710,536.266849
1265.868727,-3627.009116,-8512.368333,76.609550
1265.869039,-3182.885551,-8882.471304,842.705048
1265.869352,-3404.947333,-8512.368333,459.657299
1265.869665,-3552.988522,-8586.388927,383.047749
1265.869978,-3256.906145,-8512.368333,459.657299
1265.870290,-3256.906145,-8808.450710,842.705048
1265.870603,-3552.988522,-8882.471304,842.705048
1265.870916,-3330.926739,-8734.430116,1225.752797
1265.871229,-2886.803174,-9030.512492,383.047749
1265.871541,-2886.803174,-8956.491898,766.095498
1265.871854,-3627.009116,-8956.491898,842.705048
1265.872167,-3478.967927,-9104.533087,1225.752797
1265.872480,-3478.967927,-9030.512492,1225.752797
1265.872792,-3849.070898,-8660.409521,1072.533697
1265.873105,-4071.132681,-9030.512492,689.485948
1265.873418,-3478.967927,-9178.553681,919.314598
1265.873731,-3404.947333,-8216.285956,306.438199
1265.874043,-3330.926739,-8364.327145,306.438199
1265.874356,-3849.070898,-8586.388927,689.485948
1265.874669,-3330.926739,-8882.471304,536.266849
1265.874982,-3034.844362,-8586.388927,306.438199
1265.875294,-3034.844362,-8142.265362,306.438199
1265.875607,-3478.967927,-8438.347739,1302.362347
1265.875920,-2960.823768,-8956.491898,1225.752797
1265.876233,-2664.741391,-8586.388927,689.485948
1265.876545,-3552.988522,-8734.430116,1302.362347
1265.876858,-3701.029710,-9252.574275,1149.143247
1265.877171,-3256.906145,-9326.594869,689.485948
1265.877484,-3478.967927,-8882.471304,153.219100
1265.877796,-4071.132681,-8660.409521,229.828649
1265.878109,-3849.070898,-8438.347739,0.000000
1265.878422,-3404.947333,-8660.409521,0.000000
1265.878735,-3034.844362,-8512.368333,0.000000
1265.879047,-3627.009116,-8734.430116,459.657299
1265.879360,-3478.967927,-8956.491898,536.266849
1265.879673,-3182.885551,-8660.409521,229.828649
1265.879986,-2442.679609,-8882.471304,0.000000
1265.880298,-2590.720797,-9178.553681,0.000000
1265.880611,-2664.741391,-9104.533087,0.000000
1265.880924,-2590.720797,-8956.491898,229.828649
1265.881237,-2368.659014,-9178.553681,383.047749
1265.881549,-2368.659014,-9474.636058,536.266849
1265.881862,-2442.679609,-9622.677246,153.219100
1265.882175,-2664.741391,-9474.636058,0.000000
1265.882488,-2442.679609,-9918.759623,459.657299
1265.882800,-2590.720797,-9770.718434,229.828649
1265.883113,-2368.659014,-9474.636058,612.876398
1265.883426,-2664.741391,-9400.615463,1225.752797
1265.883739,-3034.844362,-9400.615463,0.000000
1265.884051,-2886.803174,-9252.574275,-383.047749
1265.884364,-3182.885551,-9104.533087,-536.266849
1265.884677,-3627.009116,-9104.533087,229.828649
1265.884990,-3478.967927,-9104.533087,459.657299
1265.885302,-3256.906145,-9252.574275,612.876398
1265.885615,-3404.947333,-8956.491898,612.876398
1265.885928,-3330.926739,-8956.491898,306.438199
1265.886241,-3182.885551,-8882.471304,459.657299
1265.886553,-3404.947333,-9252.574275,766.095498
1265.886866,-3701.029710,-9178.553681,995.924147
1265.887179,-4071.132681,-9030.512492,842.705048
1265.887492,-4071.132681,-9178.553681,919.314598
1265.887804,-3775.050304,-9030.512492,459.657299
1265.888117,-4145.153275,-8956.491898,306.438199
1265.888430,-3923.091493,-8956.491898,689.485948
1265.888743,-4219.173869,-8512.368333,1072.533697
1265.889055,-3997.112087,-8586.388927,919.314598
1265.889368,-3997.112087,-8438.347739,842.705048
1265.889681,-4145.153275,-8142.265362,919.314598
1265.889994,-3552.988522,-8364.327145,919.314598
1265.890306,-3552.988522,-8068.244768,919.314598
1265.890619,-3404.947333,-7994.224174,689.485948
1265.890932,-3552.988522,-8512.368333,1149.143247
1265.891244,-2960.823768,-9178.553681,1149.143247
1265.891557,-3182.885551,-8956.491898,842.705048
1265.891870,-3034.844362,-8956.491898,1149.143247
1265.892183,-3330.926739,-8660.409521,1072.533697
1265.892495,-3256.906145,-9104.533087,1762.019645
1265.892808,-3478.967927,-8882.471304,689.485948
1265.893121,-3256.906145,-8734.430116,766.095498
1265.893434,-3256.906145,-8364.327145,842.705048
1265.893746,-3478.967927,-8586.388927,536.266849
1265.894059,-3478.967927,-8734.430116,842.705048
1265.894372,-3552.988522,-8882.471304,766.095498
1265.894685,-3404.947333,-8956.491898,1072.533697
1265.894997,-3552.988522,-8142.265362,383.047749
1265.895310,-3108.864956,-8364.327145,919.314598
1265.895623,-2664.741391,-8586.388927,842.705048
1265.895936,-2664.741391,-8956.491898,459.657299
1265.896248,-2960.823768,-9030.512492,536.266849
1265.896561,-3182.885551,-9030.512492,842.705048
1265.896874,-2738.761985,-9104.533087,612.876398
1265.897187,-3108.864956,-8882.471304,919.314598
1265.897499,-3256.906145,-9400.615463,766.095498
1265.897812,-3034.844362,-9104.533087,383.047749
1265.898125,-2960.823768,-9400.615463,383.047749
1265.898438,-3182.885551,-9326.594869,0.000000
1265.898750,-3108.864956,-9104.533087,76.609550
1265.899063,-3256.906145,-9178.553681,229.828649
1265.899376,-3034.844362,-9030.512492,153.219100
1265.899689,-2664.741391,-9474.636058,689.485948
1265.900001,-3182.885551,-8660.409521,306.438199
1265.900314,-3256.906145,-9252.574275,612.876398
1265.900627,-3108.864956,-9400.615463,919.314598
1265.900940,-3034.844362,-9326.594869,459.657299
1265.901252,-2960.823768,-9252.574275,153.219100
1265.901565,-3108.864956,-9104.533087,0.000000
1265.901878,-3108.864956,-9178.553681,383.047749
1265.902191,-3330.926739,-9252.574275,919.314598
1265.902503,-3404.947333,-9104.533087,383.047749
1265.902816,-3478.967927,-9030.512492,76.609550
1265.903129,-3256.906145,-8882.471304,76.609550
1265.903442,-3775.050304,-8956.491898,0.000000
1265.903754,-3478.967927,-9178.553681,536.266849
1265.904067,-3923.091493,-9178.553681,766.095498
1265.904380,-3997.112087,-8956.491898,459.657299
1265.904693,-3923.091493,-8956.491898,459.657299
1265.905005,-3775.050304,-8660.409521,-76.609550
1265.905318,-4145.153275,-8512.368333,229.828649
1265.905631,-3775.050304,-8512.368333,306.438199
1265.905944,-4145.153275,-8586.388927,536.266849
1265.906256,-4293.194464,-8734.430116,536.266849
1265.906569,-4441.235652,-8734.430116,612.876398
1265.906882,-4145.153275,-8586.388927,995.924147
1265.907195,-3849.070898,-8956.491898,1302.362347
1265.907507,-3775.050304,-8734.430116,919.314598
1265.907820,-4441.235652,-8438.347739,766.095498
1265.908133,-4145.153275,-8216.285956,995.924147
1265.908446,-3997.112087,-8512.368333,612.876398
1265.908758,-3627.009116,-8586.388927,459.657299
1265.909071,-3256.906145,-8438.347739,612.876398
1265.909384,-3330.926739,-8364.327145,383.047749
1265.909697,-3552.988522,-8438.347739,995.924147
1265.910009,-3330.926739,-8586.388927,1149.143247
1265.910322,-3034.844362,-8660.409521,689.485948
1265.910635,-2664.741391,-8956.491898,459.657299
1265.910948,-2664.741391,-9252.574275,919.314598
1265.911260,-2738.761985,-9104.533087,1149.143247
1265.911573,-2664.741391,-9326.594869,1685.410096
1265.911886,-2516.700203,-9400.615463,1378.971896
1265.912199,-2516.700203,-9252.574275,1149.143247
1265.912511,-3330.926739,-9104.533087,919.314598
1265.912824,-2812.782580,-8956.491898,919.314598
1265.913137,-3034.844362,-8956.491898,1072.533697
1265.913450,-3701.029710,-8956.491898,1072.533697
1265.913762,-3775.050304,-8956.491898,1378.971896
1265.914075,-3552.988522,-8808.450710,1072.533697
1265.914388,-3849.070898,-8290.306550,689.485948
1265.914701,-3404.947333,-8364.327145,1149.143247
1265.915013,-3701.029710,-8586.388927,1072.533697
1265.915326,-3849.070898,-8734.430116,1072.533697
1265.915639,-4367.215058,-8734.430116,1149.143247
1265.915952,-4145.153275,-8438.347739,1378.971896
1265.916264,-3552.988522,-8808.450710,1072.533697
1265.916577,-3923.091493,-8660.409521,842.705048
1265.916890,-4145.153275,-8660.409521,1762.019645
1265.917203,-3775.050304,-8956.491898,2068.457845
1265.917515,-3775.050304,-9252.574275,1378.971896
1265.917828,-3997.112087,-8956.491898,1532.190996
1265.918141,-3997.112087,-8956.491898,1455.581446
1265.918453,-3997.112087,-9104.533087,1302.362347
1265.918766,-4145.153275,-9104.533087,1302.362347
1265.919079,-4219.173869,-8364.327145,1685.410096
1265.919392,-4071.132681,-8734.430116,1302.362347
1265.919704,-4737.318029,-8808.450710,1762.019645
1265.920017,-4367.215058,-8068.244768,1378.971896
1265.920330,-4071.132681,-8216.285956,1302.362347
1265.920643,-4293.194464,-8364.327145,1838.629195
1265.920955,-4663.297435,-8438.347739,1532.190996
1265.921268,-4589.276840,-8586.388927,1532.190996
1265.921581,-4219.173869,-8438.347739,1455.581446
1265.921894,-4367.215058,-8438.347739,1072.533697
1265.922206,-4737.318029,-8068.244768,1225.752797
1265.922519,-4663.297435,-8290.306550,1838.629195
1265.922832,-4589.276840,-8660.409521,1762.019645
1265.923145,-4663.297435,-8734.430116,1991.848295
1265.923458,-4515.256246,-8586.388927,1532.190996
1265.923770,-4515.256246,-8586.388927,1532.190996
1265.924083,-4071.132681,-8364.327145,1225.752797
1265.924396,-4367.215058,-8142.265362,1302.362347
1265.924709,-4293.194464,-8438.347739,1915.238745
1265.925021,-3997.112087,-8660.409521,1302.362347
1265.925334,-4515.256246,-8364.327145,1455.581446
1265.925647,-4071.132681,-8364.327145,1302.362347
1265.925960,-3701.029710,-8364.327145,1455.581446
1265.926272,-3627.009116,-8364.327145,1378.971896
1265.926585,-3849.070898,-8290.306550,1302.362347
1265.926898,-3552.988522,-8882.471304,1455.581446
1265.927211,-3108.864956,-8734.430116,1762.019645
1265.927523,-3108.864956,-8882.471304,1302.362347
1265.927836,-3108.864956,-8660.409521,1072.533697
1265.928149,-2960.823768,-8660.409521,995.924147
1265.928462,-3182.885551,-8660.409521,1225.752797
1265.928774,-3108.864956,-8660.409521,1532.190996
1265.929087,-2886.803174,-9178.553681,1149.143247
1265.929400,-3034.844362,-9030.512492,1532.190996
1265.929713,-3034.844362,-9104.533087,1225.752797
1265.930025,-3034.844362,-9104.533087,919.314598
1265.930338,-2664.741391,-9178.553681,995.924147
1265.930651,-3034.844362,-9030.512492,689.485948
1265.930964,-3034.844362,-8956.491898,689.485948
1265.931276,-3330.926739,-9104.533087,766.095498
1265.931589,-3108.864956,-8956.491898,536.266849
1265.931902,-3330.926739,-9178.553681,536.266849
1265.932215,-2812.782580,-9252.574275,919.314598
1265.932527,-3627.009116,-9252.574275,842.705048
1265.932840,-3997.112087,-9104.533087,995.924147
1265.933153,-3849.070898,-9104.533087,766.095498
1265.933466,-3923.091493,-8956.491898,229.828649
1265.933778,-4219.173869,-8808.450710,459.657299
1265.934091,-3923.091493,-9104.533087,153.219100
1265.934404,-4293.194464,-8734.430116,306.438199
1265.934717,-3997.112087,-8734.430116,612.876398
1265.935029,-4367.215058,-8808.450710,612.876398
1265.935342,-4441.235652,-8956.491898,919.314598
1265.935655,-4367.215058,-8734.430116,766.095498
1265.935968,-4219.173869,-8882.471304,383.047749
1265.936280,-4663.297435,-8586.388927,919.314598
1265.936593,-4145.153275,-8290.306550,459.657299
1265.936906,-4441.235652,-8660.409521,842.705048
1265.937219,-4293.194464,-8660.409521,689.485948
1265.937532,-4219.173869,-8586.388927,689.485948
1265.937844,-4441.235652,-8808.450710,842.705048
1265.938157,-4737.318029,-8660.409521,919.314598
1265.938470,-4737.318029,-8512.368333,1072.533697
1265.938783,-4071.132681,-8808.450710,919.314598
1265.939095,-4145.153275,-8734.430116,1762.019645
1265.939408,-4441.235652,-8586.388927,1455.581446
1265.939721,-4293.194464,-8512.368333,995.924147
1265.940034,-4367.215058,-8364.327145,1149.143247
1265.940346,-4515.256246,-8586.388927,1149.143247
1265.940659,-4367.215058,-8364.327145,995.924147
1265.940972,-3923.091493,-8068.244768,919.314598
1265.941285,-3552.988522,-8438.347739,1072.533697
1265.941597,-3552.988522,-8512.368333,1302.362347
1265.941910,-3923.091493,-8364.327145,1608.800546
1265.942223,-3775.050304,-8808.450710,1915.238745
1265.942536,-3701.029710,-9104.533087,1685.410096
1265.942848,-3256.906145,-8882.471304,1378.971896
1265.943161,-3182.885551,-8956.491898,1838.629195
1265.943474,-3182.885551,-8586.388927,1838.629195
1265.943787,-3108.864956,-8882.471304,1608.800546
1265.944099,-3478.967927,-8660.409521,2221.676944
1265.944412,-3478.967927,-8660.409521,1608.800546
1265.944725,-3330.926739,-9030.512492,1838.629195
1265.945038,-3627.009116,-8734.430116,1532.190996
1265.945350,-3627.009116,-8882.471304,1838.629195
1265.945663,-3478.967927,-8882.471304,1532.190996
1265.945976,-3552.988522,-8586.388927,1915.238745
1265.946289,-3627.009116,-8512.368333,2068.457845
1265.946601,-3478.967927,-8364.327145,1532.190996
1265.946914,-3404.947333,-8438.347739,1072.533697
1265.947227,-3330.926739,-8734.430116,1302.362347
1265.947540,-3627.009116,-8364.327145,1532.190996
1265.947852,-3404.947333,-8586.388927,1838.629195
1265.948165,-3330.926739,-8586.388927,2145.067394
1265.948478,-3330.926739,-8808.450710,1532.190996
1265.948791,-3478.967927,-8660.409521,1608.800546
1265.949103,-3330.926739,-8660.409521,1072.533697
1265.949416,-3330.926739,-8882.471304,1149.143247
1265.949729,-3330.926739,-9104.533087,1225.752797
1265.950042,-3849.070898,-8734.430116,1532.190996
1265.950354,-3923.091493,-9178.553681,1762.019645
1265.950667,-3775.050304,-8956.491898,1532.190996
1265.950980,-3627.009116,-8956.491898,306.438199
1265.951293,-4515.256246,-8660.409521,1302.362347
1265.951605,-4515.256246,-8882.471304,1532.190996
1265.951918,-4071.132681,-8808.450710,1149.143247
1265.952231,-4145.153275,-8068.244768,229.828649
1265.952544,-4441.235652,-8216.285956,612.876398
1265.952857,-4441.235652,-8364.327145,919.314598
1265.953169,-4293.194464,-8808.450710,919.314598
1265.953482,-4589.276840,-8364.327145,459.657299
1265.953795,-3701.029710,-8586.388927,766.095498
1265.954108,-3552.988522,-8512.368333,1149.143247
1265.954420,-3997.112087,-9178.553681,995.924147
1265.954733,-4515.256246,-8956.491898,1378.971896
1265.955046,-4441.235652,-8956.491898,1225.752797
1265.955359,-4145.153275,-8956.491898,995.924147
1265.955671,-3923.091493,-9104.533087,919.314598
1265.955984,-3404.947333,-8956.491898,1225.752797
1265.956297,-3404.947333,-8586.388927,612.876398
1265.956610,-4367.215058,-8512.368333,306.438199
1265.956922,-4367.215058,-8660.409521,612.876398
1265.957235,-3997.112087,-8438.347739,76.609550
1265.957548,-4071.132681,-8586.388927,306.438199
1265.957861,-3775.050304,-8290.306550,612.876398
1265.958173,-3182.885551,-8956.491898,1072.533697
1265.958486,-3256.906145,-8956.491898,1608.800546
1265.958799,-3478.967927,-9030.512492,1915.238745
1265.959112,-3552.988522,-9252.574275,1225.752797
1265.959424,-3627.009116,-9326.594869,1072.533697
1265.959737,-3182.885551,-9178.553681,689.485948
1265.960050,-3404.947333,-8660.409521,536.266849
1265.960363,-3404.947333,-8586.388927,766.095498
1265.960675,-3404.947333,-8734.430116,1149.143247
1265.960988,-3034.844362,-8882.471304,383.047749
1265.961301,-2738.761985,-9400.615463,842.705048
1265.961614,-3775.050304,-9030.512492,995.924147
1265.961926,-3404.947333,-9252.574275,995.924147
1265.962239,-2960.823768,-9178.553681,1072.533697
1265.962552,-3478.967927,-9030.512492,1378.971896
1265.962865,-4219.173869,-9400.615463,1838.629195
1265.963177,-3552.988522,-9326.594869,1455.581446
1265.963490,-3108.864956,-9104.533087,842.705048
1265.963803,-3923.091493,-8660.409521,1378.971896
1265.964116,-3849.070898,-8438.347739,1149.143247
1265.964428,-3701.029710,-8660.409521,766.095498
1265.964741,-3404.947333,-8660.409521,536.266849
1265.965054,-3330.926739,-8438.347739,229.828649
1265.965367,-3701.029710,-7920.203579,1302.362347
1265.965679,-3701.029710,-9178.553681,1072.533697
1265.965992,-3775.050304,-8438.347739,1225.752797
1265.966305,-3108.864956,-8438.347739,1072.533697
1265.966618,-3478.967927,-8956.491898,1838.629195
1265.966930,-3997.112087,-9252.574275,1991.848295
1265.967243,-3775.050304,-9178.553681,1608.800546
1265.967556,-3701.029710,-8882.471304,1072.533697
1265.967869,-3923.091493,-8882.471304,1302.362347
1265.968182,-4293.194464,-8364.327145,1072.533697
1265.968494,-4367.215058,-7994.224174,1225.752797
1265.968807,-4071.132681,-8068.244768,919.314598
1265.969120,-3923.091493,-8364.327145,459.657299
1265.969433,-4071.132681,-8068.244768,306.438199
1265.969745,-3849.070898,-8512.368333,383.047749
1265.970058,-3256.906145,-8512.368333,919.314598
1265.970371,-3404.947333,-8068.244768,1378.971896
1265.970684,-3849.070898,-8586.388927,1991.848295
1265.970996,-3330.926739,-9030.512492,2068.457845
1265.971309,-2886.803174,-9474.636058,1762.019645
1265.971622,-3627.009116,-8660.409521,1302.362347
1265.971935,-4293.194464,-9252.574275,1762.019645
1265.972247,-4219.173869,-9622.677246,1762.019645
1265.972560,-3849.070898,-9474.636058,1225.752797
1265.972873,-4071.132681,-8438.347739,1149.143247
1265.973186,-4737.318029,-8586.388927,919.314598
1265.973498,-4293.194464,-8438.347739,1608.800546
1265.973811,-3701.029710,-8956.491898,383.047749
1265.974124,-3849.070898,-8438.347739,612.876398
1265.974437,-3923.091493,-8438.347739,1072.533697
1265.974749,-3552.988522,-8660.409521,1149.143247
1265.975062,-2738.761985,-8734.430116,1302.362347
1265.975375,-2664.741391,-8808.450710,1838.629195
1265.975688,-3404.947333,-8586.388927,2068.457845
1265.976000,-3701.029710,-9030.512492,1915.238745
1265.976313,-3330.926739,-9104.533087,1762.019645
1265.976626,-3701.029710,-9030.512492,1762.019645
1265.976939,-4663.297435,-9252.574275,2451.505594
1265.977251,-5181.441594,-9030.512492,2374.896044
1265.977564,-5329.482782,-8512.368333,2451.505594
1265.977877,-4959.379811,-8734.430116,1915.238745
1265.978190,-5625.565159,-8364.327145,1378.971896
1265.978502,-5477.523971,-7402.059420,536.266849
1265.978815,-5033.400406,-7402.059420,76.609550
1265.979128,-5033.400406,-7772.162391,1072.533697
1265.979441,-5033.400406,-7624.121203,1225.752797
1265.979753,-4959.379811,-7624.121203,1225.752797
1265.980066,-4441.235652,-7994.224174,1149.143247
1265.980379,-3775.050304,-8142.265362,1378.971896
1265.980692,-3627.009116,-8660.409521,689.485948
1265.981004,-4515.256246,-8290.306550,1685.410096
1265.981317,-4145.153275,-8882.471304,2221.676944
1265.981630,-3701.029710,-9178.553681,2068.457845
1265.981943,-3923.091493,-8956.491898,1532.190996
1265.982255,-4515.256246,-9400.615463,1685.410096
1265.982568,-4367.215058,-8956.491898,1532.190996
1265.982881,-3849.070898,-8808.450710,995.924147
1265.983194,-4367.215058,-8808.450710,689.485948
1265.983507,-4441.235652,-8290.306550,842.705048
1265.983819,-4367.215058,-8142.265362,689.485948
1265.984132,-3627.009116,-8216.285956,229.828649
1265.984445,-3552.988522,-8068.244768,153.219100
1265.984758,-3404.947333,-8142.265362,995.924147
1265.985070,-3256.906145,-8364.327145,919.314598
1265.985383,-2738.761985,-8808.450710,1072.533697
1265.985696,-2516.700203,-8734.430116,1608.800546
1265.986009,-2960.823768,-8956.491898,1608.800546
1265.986321,-2886.803174,-9474.636058,1225.752797
1265.986634,-2960.823768,-9622.677246,1378.971896
1265.986947,-3182.885551,-9696.697840,1225.752797
1265.987260,-3404.947333,-9474.636058,995.924147
1265.987572,-3627.009116,-9030.512492,1149.143247
1265.987885,-3256.906145,-9030.512492,229.828649
1265.988198,-3478.967927,-8734.430116,229.828649
1265.988511,-3849.070898,-9030.512492,0.000000
1265.988823,-3701.029710,-8808.450710,0.000000
1265.989136,-3552.988522,-8734.430116,383.047749
1265.989449,-3478.967927,-8734.430116,612.876398
1265.989762,-2812.782580,-8438.347739,842.705048
1265.990074,-3256.906145,-8512.368333,1225.752797
1265.990387,-3404.947333,-8882.471304,1302.362347
1265.990700,-3034.844362,-9326.594869,1608.800546
1265.991013,-3478.967927,-9252.574275,1149.143247
1265.991325,-3478.967927,-9326.594869,1149.143247
1265.991638,-3701.029710,-9400.615463,1302.362347
1265.991951,-3775.050304,-9252.574275,1225.752797
1265.992264,-4071.132681,-9030.512492,1072.533697
1265.992576,-4145.153275,-8882.471304,1149.143247
1265.992889,-4367.215058,-9178.553681,1455.581446
1265.993202,-4293.194464,-8882.471304,612.876398
1265.993515,-4219.173869,-8438.347739,842.705048
1265.993827,-4219.173869,-8364.327145,919.314598
1265.994140,-4071.132681,-8068.244768,612.876398
1265.994453,-4367.215058,-7698.141797,689.485948
1265.994766,-3923.091493,-8068.244768,842.705048
1265.995078,-3923.091493,-8586.388927,1072.533697
1265.995391,-3849.070898,-8290.306550,1455.581446
1265.995704,-3775.050304,-8586.388927,1302.362347
1265.996017,-3849.070898,-8956.491898,1685.410096
1265.996329,-3923.091493,-9104.533087,1838.629195
1265.996642,-4145.153275,-9104.533087,1762.019645
1265.996955,-3923.091493,-8808.450710,1991.848295
1265.997268,-4441.235652,-8364.327145,1532.190996
1265.997581,-4071.132681,-8586.388927,1455.581446
1265.997893,-4219.173869,-8364.327145,1072.533697
1265.998206,-4589.276840,-8364.327145,1149.143247
1265.998519,-4515.256246,-8364.327145,1302.362347
1265.998832,-4737.318029,-8290.306550,1149.143247
1265.999144,-4515.256246,-8438.347739,1378.971896
1265.999457,-4293.194464,-8364.327145,1225.752797
1265.999770,-4441.235652,-7920.203579,689.485948
1266.000083,-3775.050304,-8290.306550,1225.752797
1266.000395,-3701.029710,-8142.265362,1455.581446
1266.000708,-3849.070898,-8512.368333,1608.800546
1266.001021,-3923.091493,-8660.409521,1685.410096
1266.001334,-3997.112087,-8586.388927,1762.019645
1266.001646,-3627.009116,-8956.491898,1762.019645
1266.001959,-3256.906145,-9030.512492,1762.019645
1266.002272,-3256.906145,-8512.368333,1072.533697
1266.002585,-3478.967927,-8660.409521,1532.190996
1266.002897,-3330.926739,-9104.533087,1762.019645
1266.003210,-3552.988522,-9030.512492,1532.190996
1266.003523,-3182.885551,-8956.491898,1225.752797
1266.003836,-3108.864956,-8808.450710,1072.533697
1266.004148,-2960.823768,-9030.512492,1378.971896
1266.004461,-3182.885551,-8734.430116,1685.410096
1266.004774,-3478.967927,-8512.368333,1608.800546
1266.005087,-3404.947333,-8734.430116,1762.019645
1266.005399,-3108.864956,-9030.512492,1149.143247
1266.005712,-3330.926739,-8956.491898,1225.752797
1266.006025,-3627.009116,-9030.512492,1455.581446
1266.006338,-3701.029710,-9030.512492,1838.629195
1266.006650,-3701.029710,-8290.306550,1532.190996
1266.006963,-3923.091493,-8438.347739,1149.143247
1266.007276,-4219.173869,-8290.306550,919.314598
1266.007589,-4071.132681,-8660.409521,1302.362347
1266.007901,-4145.153275,-8660.409521,1455.581446
1266.008214,-4145.153275,-8142.265362,842.705048
1266.008527,-3849.070898,-8216.285956,842.705048
1266.008840,-3775.050304,-8438.347739,689.485948
1266.009152,-3775.050304,-8586.388927,689.485948
1266.009465,-3627.009116,-8586.388927,766.095498
1266.009778,-3775.050304,-8512.368333,1225.752797
1266.010091,-3849.070898,-8956.491898,1302.362347
1266.010403,-3775.050304,-8808.450710,919.314598
1266.010716,-3552.988522,-8734.430116,1149.143247
1266.011029,-3256.906145,-9178.553681,1225.752797
1266.011342,-3552.988522,-9104.533087,919.314598
1266.011654,-3404.947333,-8586.388927,766.095498
1266.011967,-3108.864956,-8438.347739,306.438199
1266.012280,-3182.885551,-8734.430116,0.000000
1266.012593,-2960.823768,-8512.368333,-459.657299
1266.012906,-2886.803174,-8438.347739,-306.438199
1266.013218,-2590.720797,-9030.512492,0.000000
1266.013531,-2886.803174,-9400.615463,76.609550
1266.013844,-2886.803174,-9178.553681,0.000000
1266.014157,-2664.741391,-9400.615463,153.219100
1266.014469,-2960.823768,-9474.636058,536.266849
1266.014782,-3256.906145,-9474.636058,842.705048
1266.015095,-3108.864956,-9178.553681,229.828649
1266.015408,-3108.864956,-9400.615463,0.000000
1266.015720,-3701.029710,-9400.615463,76.609550
1266.016033,-3849.070898,-9252.574275,76.609550
1266.016346,-3701.029710,-9252.574275,-306.438199
1266.016659,-3849.070898,-9400.615463,0.000000
1266.016971,-3923.091493,-8438.347739,-612.876398
1266.017284,-3849.070898,-8512.368333,-536.266849
1266.017597,-3627.009116,-8438.347739,153.219100
1266.017910,-3701.029710,-8660.409521,-153.219100
1266.018222,-3256.906145,-8660.409521,-383.047749
1266.018535,-3182.885551,-8734.430116,-383.047749
1266.018848,-3182.885551,-9030.512492,-153.219100
1266.019161,-3404.947333,-8956.491898,459.657299
1266.019473,-3034.844362,-8956.491898,0.000000
1266.019786,-3108.864956,-8956.491898,1072.533697
1266.020099,-3034.844362,-9548.656652,383.047749
1266.020412,-3182.885551,-9474.636058,383.047749
1266.020724,-3182.885551,-9474.636058,0.000000
1266.021037,-3256.906145,-9252.574275,0.000000
1266.021350,-3330.926739,-9104.533087,153.219100
1266.021663,-3330.926739,-8956.491898,153.219100
1266.021975,-3478.967927,-8734.430116,0.000000
1266.022288,-3108.864956,-9030.512492,612.876398
1266.022601,-3404.947333,-8586.388927,919.314598
1266.022913,-3108.864956,-8660.409521,612.876398
1266.023226,-3108.864956,-8438.347739,153.219100
1266.023539,-3034.844362,-8734.430116,383.047749
1266.023852,-3330.926739,-8882.471304,842.705048
1266.024164,-2886.803174,-8956.491898,536.266849
1266.024477,-2886.803174,-8956.491898,919.314598
1266.024790,-3330.926739,-9252.574275,1225.752797
1266.025103,-3034.844362,-9030.512492,1378.971896
1266.025415,-3849.070898,-9030.512492,1378.971896
1266.025728,-3701.029710,-9030.512492,1302.362347
1266.026041,-3701.029710,-8882.471304,919.314598
1266.026353,-3923.091493,-8734.430116,995.924147
1266.026666,-3701.029710,-8734.430116,1072.533697
1266.026979,-3182.885551,-8660.409521,536.266849
1266.027292,-3404.947333,-8512.368333,842.705048
1266.027604,-3552.988522,-8438.347739,919.314598
1266.027917,-3330.926739,-8364.327145,919.314598
1266.028230,-3256.906145,-8808.450710,1149.143247
1266.028543,-3404.947333,-8734.430116,1225.752797
1266.028855,-3256.906145,-8808.450710,1608.800546
1266.029168,-3182.885551,-8882.471304,1455.581446
1266.029481,-3182.885551,-8660.409521,1915.238745
1266.029793,-3108.864956,-9178.553681,1762.019645
1266.030106,-3404.947333,-9030.512492,689.485948
1266.030419,-3478.967927,-8808.450710,1072.533697
1266.030732,-3404.947333,-9030.512492,1149.143247
1266.031044,-3404.947333,-8956.491898,1072.533697
1266.031357,-3330.926739,-8586.388927,1149.143247
1266.031670,-3849.070898,-8438.347739,995.924147
1266.031983,-3330.926739,-8956.491898,1762.019645
1266.032295,-3182.885551,-7920.203579,306.438199
1266.032608,-2886.803174,-8660.409521,383.047749
1266.032921,-3182.885551,-8586.388927,612.876398
1266.033233,-2960.823768,-8660.409521,689.485948
1266.033546,-2812.782580,-9252.574275,842.705048
1266.033859,-2960.823768,-9326.594869,1072.533697
1266.034172,-2960.823768,-9104.533087,1072.533697
1266.034484,-2960.823768,-9326.594869,1225.752797
1266.034797,-3108.864956,-8734.430116,612.876398
1266.035110,-3034.844362,-9474.636058,919.314598
1266.035422,-3108.864956,-9178.553681,689.485948
1266.035735,-3330.926739,-8956.491898,383.047749
1266.036048,-3330.926739,-9104.533087,306.438199
1266.036361,-3330.926739,-8438.347739,0.000000
1266.036673,-3627.009116,-8512.368333,76.609550
1266.036986,-3404.947333,-8142.265362,0.000000
1266.037299,-3330.926739,-8734.430116,229.828649
1266.037612,-3256.906145,-8734.430116,229.828649
1266.037924,-3182.885551,-8882.471304,0.000000
1266.038237,-3256.906145,-9400.615463,0.000000
1266.038550,-3701.029710,-9104.533087,459.657299
1266.038862,-3552.988522,-8660.409521,229.828649
1266.039175,-3552.988522,-9030.512492,306.438199
1266.039488,-3108.864956,-9252.574275,229.828649
1266.039801,-3627.009116,-9178.553681,229.828649
1266.040113,-3701.029710,-9178.553681,0.000000
1266.040426,-3849.070898,-9252.574275,76.609550
1266.040739,-3849.070898,-8882.471304,153.219100
1266.041052,-3923.091493,-8290.306550,0.000000
1266.041364,-3775.050304,-8438.347739,-306.438199
1266.041677,-3627.009116,-8364.327145,-383.047749
1266.041990,-3701.029710,-8438.347739,0.000000
1266.042302,-3330.926739,-8734.430116,-459.657299
1266.042615,-3552.988522,-8734.430116,0.000000
1266.042928,-3478.967927,-9030.512492,76.609550
1266.043241,-3552.988522,-8956.491898,536.266849
1266.043553,-3478.967927,-9326.594869,689.485948
1266.043866,-3256.906145,-9622.677246,1608.800546
1266.044179,-3034.844362,-9622.677246,1378.971896
1266.044492,-3552.988522,-9104.533087,689.485948
1266.044804,-3627.009116,-9326.594869,536.266849
1266.045117,-3552.988522,-9178.553681,383.047749
1266.045430,-3330.926739,-9104.533087,306.438199
1266.045742,-3701.029710,-8586.388927,229.828649
1266.046055,-3478.967927,-8808.450710,919.314598
1266.046368,-3552.988522,-8438.347739,842.705048
1266.046681,-2812.782580,-8956.491898,536.266849
1266.046993,-3627.009116,-8216.285956,383.047749
1266.047306,-3775.050304,-8586.388927,842.705048
1266.047619,-3108.864956,-8956.491898,766.095498
1266.047931,-2812.782580,-8586.388927,995.924147
1266.048244,-3182.885551,-8290.306550,919.314598
1266.048557,-3478.967927,-8512.368333,1838.629195
1266.048870,-3108.864956,-8882.471304,1225.752797
1266.049182,-3330.926739,-9030.512492,1685.410096
1266.049495,-3701.029710,-8808.450710,1455.581446
1266.049808,-3256.906145,-8808.450710,1302.362347
1266.050121,-2960.823768,-8808.450710,995.924147
1266.050433,-3330.926739,-8734.430116,995.924147
1266.050746,-3552.988522,-8364.327145,995.924147
1266.051059,-3775.050304,-8290.306550,612.876398
1266.051371,-3256.906145,-8660.409521,1072.533697
1266.051684,-3034.844362,-8512.368333,1072.533697
1266.051997,-2960.823768,-8438.347739,1072.533697
1266.052310,-3404.947333,-8660.409521,1608.800546
1266.052622,-3256.906145,-8956.491898,1532.190996
1266.052935,-2960.823768,-8660.409521,1149.143247
1266.053248,-3108.864956,-8216.285956,842.705048
1266.053561,-3034.844362,-8808.450710,766.095498
1266.053873,-2960.823768,-8734.430116,766.095498
1266.054186,-2886.803174,-9178.553681,842.705048
1266.054499,-3256.906145,-9178.553681,1225.752797
1266.054811,-3775.050304,-8956.491898,1149.143247
1266.055124,-3552.988522,-9252.574275,995.924147
1266.055437,-3701.029710,-9252.574275,459.657299
1266.055750,-3775.050304,-9104.533087,612.876398
1266.056062,-3775.050304,-8956.491898,1455.581446
1266.056375,-4071.132681,-8882.471304,995.924147
1266.056688,-3701.029710,-8364.327145,612.876398
1266.057001,-3775.050304,-8586.388927,536.266849
1266.057313,-4367.215058,-8586.388927,383.047749
1266.057626,-4145.153275,-8438.347739,536.266849
1266.057939,-3775.050304,-8438.347739,0.000000
1266.058251,-3256.906145,-8364.327145,689.485948
1266.058564,-3701.029710,-8956.491898,1455.581446
1266.058877,-3701.029710,-8512.368333,689.485948
1266.059190,-3404.947333,-8586.388927,229.828649
1266.059502,-3552.988522,-9178.553681,153.219100
1266.059815,-3849.070898,-9030.512492,536.266849
1266.060128,-3701.029710,-9030.512492,689.485948
1266.060441,-3182.885551,-8882.471304,919.314598
1266.060753,-3108.864956,-9178.553681,1302.362347
1266.061066,-3923.091493,-8956.491898,1072.533697
1266.061379,-3923.091493,-8660.409521,536.266849
1266.061691,-4071.132681,-8956.491898,229.828649
1266.062004,-3923.091493,-9104.533087,0.000000
1266.062317,-3701.029710,-9030.512492,0.000000
1266.062630,-3404.947333,-8438.347739,229.828649
1266.062942,-3552.988522,-8808.450710,766.095498
1266.063255,-3701.029710,-8882.471304,919.314598
1266.063568,-3404.947333,-8808.450710,919.314598
1266.063880,-3034.844362,-8660.409521,689.485948
1266.064193,-3404.947333,-8808.450710,383.047749
1266.064506,-3182.885551,-9104.533087,536.266849
1266.064819,-3256.906145,-9326.594869,919.314598
1266.065131,-3256.906145,-8808.450710,1302.362347
1266.065444,-3627.009116,-8364.327145,1302.362347
1266.065757,-3627.009116,-9178.553681,689.485948
1266.066070,-3627.009116,-9696.697840,459.657299
1266.066382,-3182.885551,-9104.533087,153.219100
1266.066695,-3997.112087,-8438.347739,459.657299
1266.067008,-3701.029710,-9178.553681,919.314598
1266.067320,-3256.906145,-8956.491898,612.876398
1266.067633,-3404.947333,-8438.347739,612.876398
1266.067946,-3330.926739,-8660.409521,0.000000
1266.068259,-3701.029710,-8808.450710,0.000000
1266.068571,-2960.823768,-8512.368333,-306.438199
1266.068884,-3108.864956,-8660.409521,229.828649
1266.069197,-3478.967927,-8734.430116,1149.143247
1266.069510,-3330.926739,-8882.471304,919.314598
1266.069822,-3034.844362,-9030.512492,459.657299
1266.070135,-3330.926739,-8734.430116,536.266849
1266.070448,-2886.803174,-8512.368333,536.266849
1266.070760,-3627.009116,-9104.533087,153.219100
1266.071073,-3775.050304,-8882.471304,0.000000
1266.071386,-3182.885551,-8956.491898,0.000000
1266.071699,-3256.906145,-9178.553681,0.000000
1266.072011,-3849.070898,-9030.512492,76.609550
1266.072324,-3108.864956,-8882.471304,689.485948
1266.072637,-2886.803174,-8882.471304,0.000000
1266.072950,-2664.741391,-9030.512492,76.609550
1266.073262,-2960.823768,-9030.512492,383.047749
1266.073575,-2590.720797,-8956.491898,229.828649
1266.073888,-2146.597232,-9178.553681,153.219100
1266.074200,-2368.659014,-9326.594869,383.047749
1266.074513,-2368.659014,-9252.574275,383.047749
1266.074826,-2072.576638,-9696.697840,306.438199
1266.075139,-2294.638420,-9696.697840,459.657299
1266.075451,-2146.597232,-9326.594869,459.657299
1266.075764,-2220.617826,-9104.533087,383.047749
1266.076077,-2664.741391,-9474.636058,536.266849
1266.076389,-2368.659014,-9400.615463,76.609550
1266.076702,-2516.700203,-9400.615463,-153.219100
1266.077015,-3182.885551,-9326.594869,0.000000
1266.077328,-3330.926739,-9104.533087,1149.143247
1266.077640,-3182.885551,-8956.491898,612.876398
1266.077953,-3108.864956,-8808.450710,612.876398
1266.078266,-3330.926739,-8882.471304,919.314598
1266.078579,-3552.988522,-8882.471304,536.266849
1266.078891,-3552.988522,-8808.450710,689.485948
1266.079204,-3478.967927,-9326.594869,689.485948
1266.079517,-4071.132681,-8586.388927,919.314598
1266.079829,-4071.132681,-8808.450710,612.876398
1266.080142,-3627.009116,-8586.388927,0.000000
1266.080455,-3775.050304,-8290.306550,536.266849
1266.080768,-3701.029710,-8512.368333,459.657299
1266.081080,-3997.112087,-8660.409521,766.095498
1266.081393,-3701.029710,-8808.450710,919.314598
1266.081706,-3478.967927,-8808.450710,1149.143247
1266.082019,-3478.967927,-8882.471304,1685.410096
1266.082331,-3330.926739,-9104.533087,1455.581446
1266.082644,-3627.009116,-8882.471304,1072.533697
1266.082957,-3701.029710,-8882.471304,689.485948
1266.083269,-3627.009116,-8660.409521,536.266849
1266.083582,-3404.947333,-8586.388927,689.485948
1266.083895,-3627.009116,-8882.471304,689.485948
1266.084208,-3627.009116,-8956.491898,689.485948
1266.084520,-3701.029710,-8512.368333,842.705048
1266.084833,-3849.070898,-8586.388927,995.924147
1266.085146,-3923.091493,-8438.347739,1072.533697
1266.085459,-3701.029710,-8512.368333,1302.362347
1266.085771,-3627.009116,-8586.388927,383.047749
1266.086084,-3404.947333,-8660.409521,229.828649
1266.086397,-3627.009116,-8438.347739,459.657299
1266.086709,-3701.029710,-8586.388927,842.705048
1266.087022,-3478.967927,-8808.450710,766.095498
1266.087335,-3552.988522,-8438.347739,1302.362347
1266.087648,-3256.906145,-8734.430116,1302.362347
1266.087960,-3478.967927,-8734.430116,1072.533697
1266.088273,-3627.009116,-9030.512492,995.924147
1266.088586,-3182.885551,-9104.533087,1072.533697
1266.088899,-3330.926739,-8882.471304,842.705048
1266.089211,-3108.864956,-8882.471304,383.047749
1266.089524,-2812.782580,-8586.388927,612.876398
1266.089837,-3256.906145,-8364.327145,689.485948
1266.090149,-2516.700203,-9030.512492,689.485948
1266.090462,-2590.720797,-9178.553681,766.095498
1266.090775,-2664.741391,-9252.574275,689.485948
1266.091088,-2812.782580,-9178.553681,766.095498
1266.091400,-2812.782580,-9178.553681,1072.533697
1266.091713,-2738.761985,-9252.574275,1072.533697
1266.092026,-2812.782580,-8660.409521,383.047749
1266.092338,-2664.741391,-9252.574275,919.314598
1266.092651,-2960.823768,-9104.533087,229.828649
1266.092964,-2960.823768,-9030.512492,306.438199
1266.093277,-3034.844362,-9326.594869,612.876398
1266.093589,-2886.803174,-9400.615463,612.876398
1266.093902,-2886.803174,-9104.533087,536.266849
1266.094215,-2960.823768,-9178.553681,459.657299
1266.094528,-3182.885551,-9252.574275,689.485948
1266.094840,-2960.823768,-8956.491898,306.438199
1266.095153,-2960.823768,-8956.491898,383.047749
1266.095466,-3034.844362,-8956.491898,229.828649
1266.095778,-3182.885551,-8882.471304,306.438199
1266.096091,-3256.906145,-9178.553681,306.438199
1266.096404,-3478.967927,-9252.574275,459.657299
1266.096717,-3849.070898,-8808.450710,536.266849
1266.097029,-3478.967927,-9252.574275,459.657299
1266.097342,-4145.153275,-8956.491898,766.095498
1266.097655,-3627.009116,-9104.533087,919.314598
1266.097968,-4441.235652,-8734.430116,1072.533697
1266.098280,-4663.297435,-8586.388927,842.705048
1266.098593,-4589.276840,-8660.409521,383.047749
1266.098906,-4515.256246,-8660.409521,306.438199
1266.099218,-4219.173869,-8660.409521,153.219100
1266.099531,-4071.132681,-8364.327145,536.266849
1266.099844,-3997.112087,-8290.306550,306.438199
1266.100157,-3923.091493,-8512.368333,1302.362347
1266.100469,-3627.009116,-8660.409521,459.657299
1266.100782,-3330.926739,-8808.450710,306.438199
1266.101095,-3182.885551,-8660.409521,153.219100
1266.101408,-2960.823768,-9178.553681,612.876398
1266.101720,-2738.761985,-9252.574275,842.705048
1266.102033,-2738.761985,-9474.636058,1378.971896
1266.102346,-3108.864956,-9030.512492,995.924147
1266.102658,-3108.864956,-9104.533087,766.095498
1266.102971,-3404.947333,-9326.594869,919.314598
1266.103284,-3478.967927,-9178.553681,1149.143247
1266.103597,-3256.906145,-9104.533087,842.705048
1266.103909,-3775.050304,-8660.409521,1072.533697
1266.104222,-3923.091493,-8290.306550,919.314598
1266.104535,-4071.132681,-7920.203579,842.705048
1266.104847,-3849.070898,-8216.285956,995.924147
1266.105160,-4293.194464,-8216.285956,995.924147
1266.105473,-4367.215058,-8290.306550,842.705048
1266.105786,-4071.132681,-8364.327145,995.924147
1266.106098,-3923.091493,-8660.409521,995.924147
1266.106411,-3775.050304,-8734.430116,1532.190996
1266.106724,-3775.050304,-8660.409521,1991.848295
1266.107037,-3627.009116,-8882.471304,2221.676944
1266.107349,-3997.112087,-8808.450710,1378.971896
1266.107662,-3330.926739,-9030.512492,1149.143247
1266.107975,-3330.926739,-8956.491898,1149.143247
1266.108287,-3849.070898,-9030.512492,1149.143247
1266.108600,-3849.070898,-8882.471304,1762.019645
1266.108913,-3701.029710,-8364.327145,1762.019645
1266.109226,-3627.009116,-9030.512492,1302.362347
1266.109538,-3478.967927,-9030.512492,1762.019645
1266.109851,-3552.988522,-8512.368333,1378.971896
1266.110164,-3478.967927,-8882.471304,1532.190996
1266.110477,-3997.112087,-8734.430116,1762.019645
1266.110789,-3849.070898,-8512.368333,1991.848295
1266.111102,-3923.091493,-8512.368333,1838.629195
1266.111415,-4293.194464,-8660.409521,1915.238745
1266.111727,-3923.091493,-8364.327145,919.314598
1266.112040,-3923.091493,-8512.368333,995.924147
1266.112353,-4145.153275,-8216.285956,1378.971896
1266.112666,-4367.215058,-8512.368333,1455.581446
1266.112978,-4293.194464,-8660.409521,1532.190996
1266.113291,-4293.194464,-8586.388927,1762.019645
1266.113604,-4441.235652,-8660.409521,1838.629195
1266.113917,-4367.215058,-8660.409521,1608.800546
1266.114229,-4515.256246,-8438.347739,1455.581446
1266.114542,-4515.256246,-8734.430116,2145.067394
1266.114855,-4515.256246,-8512.368333,1762.019645
1266.115167,-4441.235652,-8364.327145,1838.629195
1266.115480,-4441.235652,-8364.327145,1838.629195
1266.115793,-4367.215058,-8512.368333,1455.581446
1266.116106,-4441.235652,-8290.306550,1608.800546
1266.116418,-3923.091493,-8734.430116,1378.971896
1266.116731,-4293.194464,-8142.265362,1762.019645
1266.117044,-3997.112087,-8438.347739,1455.581446
1266.117357,-3923.091493,-8438.347739,1608.800546
1266.117669,-3997.112087,-8142.265362,1378.971896
1266.117982,-4071.132681,-8364.327145,1149.143247
1266.118295,-3775.050304,-8438.347739,919.314598
1266.118607,-3256.906145,-8364.327145,995.924147
1266.118920,-3552.988522,-8660.409521,1685.410096
1266.119233,-3404.947333,-8586.388927,1685.410096
1266.119546,-3182.885551,-8882.471304,1685.410096
1266.119858,-3256.906145,-9178.553681,1225.752797
1266.120171,-3330.926739,-9178.553681,1149.143247
1266.120484,-3256.906145,-8956.491898,919.314598
1266.120796,-3404.947333,-9104.533087,995.924147
1266.121109,-2886.803174,-9030.512492,995.924147
1266.121422,-2886.803174,-9030.512492,919.314598
1266.121735,-3034.844362,-8956.491898,1149.143247
1266.122047,-3330.926739,-9326.594869,0.000000
1266.122360,-3256.906145,-8956.491898,306.438199
1266.122673,-3330.926739,-9104.533087,612.876398
1266.122986,-3478.967927,-9030.512492,766.095498
1266.123298,-3478.967927,-8956.491898,842.705048
1266.123611,-3478.967927,-9030.512492,383.047749
1266.123924,-3997.112087,-8438.347739,306.438199
1266.124237,-3997.112087,-9252.574275,919.314598
1266.124549,-4145.153275,-9030.512492,76.609550
1266.124862,-3997.112087,-8882.471304,383.047749
1266.125175,-4219.173869,-8882.471304,459.657299
1266.125488,-4293.194464,-9030.512492,766.095498
1266.125800,-4145.153275,-9030.512492,536.266849
1266.126113,-4071.132681,-8808.450710,689.485948
1266.126426,-4367.215058,-8660.409521,919.314598
1266.126739,-4071.132681,-8364.327145,459.657299
1266.127051,-3552.988522,-9104.533087,612.876398
1266.127364,-4145.153275,-8586.388927,383.047749
1266.127677,-4145.153275,-8512.368333,842.705048
1266.127990,-3997.112087,-8734.430116,536.266849
1266.128302,-3849.070898,-8660.409521,1225.752797
1266.128615,-4071.132681,-8512.368333,689.485948
1266.128928,-4441.235652,-8586.388927,766.095498
1266.129240,-4293.194464,-8660.409521,1608.800546
1266.129553,-4145.153275,-8882.471304,1225.752797
1266.129866,-4589.276840,-8808.450710,1225.752797
1266.130179,-4589.276840,-8808.450710,1072.533697
1266.130491,-4441.235652,-8956.491898,1225.752797
1266.130804,-4663.297435,-8364.327145,1302.362347
1266.131117,-4219.173869,-8882.471304,1378.971896
1266.131430,-4145.153275,-8364.327145,1532.190996
1266.131742,-4663.297435,-8290.306550,1378.971896
1266.132055,-4071.132681,-8438.347739,1072.533697
1266.132368,-3923.091493,-8586.388927,1149.143247
1266.132681,-3923.091493,-8216.285956,995.924147
1266.132993,-3775.050304,-8438.347739,1302.362347
1266.133306,-3627.009116,-8216.285956,1608.800546
1266.133619,-3627.009116,-8512.368333,1762.019645
1266.133932,-4071.132681,-8808.450710,1149.143247
1266.134244,-3478.967927,-9178.553681,1685.410096
1266.134557,-3478.967927,-9030.512492,1608.800546
1266.134870,-3701.029710,-8956.491898,2068.457845
1266.135183,-3923.091493,-9178.553681,2068.457845
1266.135495,-3775.050304,-9104.533087,2068.457845
1266.135808,-3923.091493,-8586.388927,1608.800546
1266.136121,-3997.112087,-8364.327145,1532.190996
1266.136434,-3701.029710,-8142.265362,1149.143247
1266.136746,-3478.967927,-8512.368333,1378.971896
1266.137059,-3923.091493,-8438.347739,1378.971896
1266.137372,-3849.070898,-8660.409521,1455.581446
1266.137684,-3775.050304,-8438.347739,1532.190996
1266.137997,-3404.947333,-8438.347739,1378.971896
1266.138310,-3256.906145,-8808.450710,1378.971896
1266.138623,-3108.864956,-9104.533087,1378.971896
1266.138935,-3404.947333,-8734.430116,1762.019645
1266.139248,-3182.885551,-9400.615463,2221.676944
1266.139561,-3330.926739,-8882.471304,1532.190996
1266.139874,-3330.926739,-8956.491898,1762.019645
1266.140186,-3997.112087,-9252.574275,2068.457845
1266.140499,-3256.906145,-9400.615463,1762.019645
1266.140812,-3256.906145,-8734.430116,842.705048
1266.141125,-4071.132681,-8660.409521,842.705048
1266.141437,-4441.235652,-8586.388927,1991.848295
1266.141750,-3775.050304,-8882.471304,1302.362347
1266.142063,-3404.947333,-8364.327145,536.266849
1266.142376,-3849.070898,-8216.285956,689.485948
1266.142688,-3997.112087,-8660.409521,995.924147
1266.143001,-3627.009116,-8364.327145,1072.533697
1266.143314,-4219.173869,-8734.430116,1762.019645
1266.143627,-3923.091493,-8734.430116,1302.362347
1266.143939,-3034.844362,-8956.491898,919.314598
1266.144252,-3478.967927,-8808.450710,689.485948
1266.144565,-4145.153275,-8660.409521,1149.143247
1266.144877,-4515.256246,-8808.450710,1072.533697
1266.145190,-4663.297435,-9030.512492,842.705048
1266.145503,-4367.215058,-8438.347739,459.657299
1266.145816,-4441.235652,-8364.327145,842.705048
1266.146128,-4441.235652,-8512.368333,1072.533697
1266.146441,-4441.235652,-8660.409521,1302.362347
1266.146754,-4589.276840,-8512.368333,995.924147
1266.147067,-4811.338623,-8216.285956,842.705048
1266.147379,-4515.256246,-8660.409521,306.438199
1266.147692,-4367.215058,-8290.306550,306.438199
1266.148005,-3849.070898,-7920.203579,306.438199
1266.148318,-3997.112087,-8290.306550,689.485948
1266.148630,-3552.988522,-8808.450710,1378.971896
1266.148943,-3701.029710,-8512.368333,536.266849
1266.149256,-3552.988522,-9030.512492,689.485948
1266.149569,-3552.988522,-9474.636058,1072.533697
1266.149881,-2886.803174,-9400.615463,842.705048
1266.150194,-2812.782580,-9400.615463,1072.533697
1266.150507,-3330.926739,-9400.615463,2145.067394
1266.150820,-2960.823768,-9770.718434,612.876398
1266.151132,-2960.823768,-9622.677246,995.924147
1266.151445,-3478.967927,-9474.636058,1072.533697
1266.151758,-3478.967927,-9030.512492,612.876398
1266.152071,-2960.823768,-8956.491898,383.047749
1266.152383,-3478.967927,-8956.491898,689.485948
1266.152696,-4219.173869,-8882.471304,842.705048
1266.153009,-4071.132681,-8882.471304,842.705048
1266.153321,-3701.029710,-8734.430116,1149.143247
1266.153634,-3627.009116,-8808.450710,1149.143247
1266.153947,-3478.967927,-8290.306550,1225.752797
1266.154260,-3627.009116,-8512.368333,919.314598
1266.154572,-3552.988522,-8956.491898,612.876398
1266.154885,-3849.070898,-8660.409521,612.876398
1266.155198,-3849.070898,-8956.491898,1302.362347
1266.155511,-3256.906145,-8734.430116,1378.971896
1266.155823,-3108.864956,-8438.347739,1455.581446
1266.156136,-3182.885551,-8660.409521,1225.752797
1266.156449,-4219.173869,-9252.574275,1915.238745
1266.156762,-3849.070898,-9400.615463,1455.581446
1266.157074,-3330.926739,-8882.471304,612.876398
1266.157387,-3627.009116,-8512.368333,536.266849
1266.157700,-3701.029710,-8438.347739,1072.533697
1266.158013,-3775.050304,-8734.430116,1072.533697
1266.158325,-3330.926739,-8438.347739,1608.800546
1266.158638,-4071.132681,-8290.306550,1762.019645
1266.158951,-4071.132681,-8660.409521,1455.581446
1266.159264,-3701.029710,-9104.533087,1072.533697
1266.159576,-3701.029710,-8364.327145,536.266849
1266.159889,-4219.173869,-7550.100608,689.485948
1266.160202,-4219.173869,-8290.306550,1532.190996
1266.160515,-3775.050304,-8438.347739,842.705048
1266.160827,-3627.009116,-8216.285956,1072.533697
1266.161140,-3775.050304,-8586.388927,1225.752797
1266.161453,-4071.132681,-9252.574275,1608.800546
1266.161765,-3552.988522,-9252.574275,1225.752797
1266.162078,-3627.009116,-8808.450710,1225.752797
1266.162391,-4219.173869,-8734.430116,1915.238745
1266.162704,-3627.009116,-9178.553681,2528.115143
1266.163016,-3627.009116,-8512.368333,1685.410096
1266.163329,-3256.906145,-8734.430116,1685.410096
1266.163642,-3923.091493,-8734.430116,1378.971896
1266.163955,-4145.153275,-8586.388927,1149.143247
1266.164267,-3923.091493,-8882.471304,1302.362347
1266.164580,-3923.091493,-8586.388927,1532.190996
1266.164893,-3923.091493,-8660.409521,1915.238745
1266.165206,-4441.235652,-8290.306550,1685.410096
1266.165518,-4737.318029,-8068.244768,2374.896044
1266.165831,-4367.215058,-8364.327145,1685.410096
1266.166144,-4737.318029,-8438.347739,1378.971896
1266.166457,-4885.359217,-8586.388927,1302.362347
1266.166769,-4737.318029,-8142.265362,1608.800546
1266.167082,-4367.215058,-8364.327145,1455.581446
1266.167395,-4663.297435,-8660.409521,2221.676944
1266.167708,-4885.359217,-8364.327145,1302.362347
1266.168020,-4737.318029,-8438.347739,1225.752797
1266.168333,-4737.318029,-8364.327145,995.924147
1266.168646,-4367.215058,-8364.327145,919.314598
1266.168958,-4441.235652,-8216.285956,1608.800546
1266.169271,-4515.256246,-8660.409521,2145.067394
1266.169584,-4367.215058,-8586.388927,2374.896044
1266.169897,-3627.009116,-8734.430116,1838.629195
1266.170209,-4293.194464,-8216.285956,1072.533697
1266.170522,-4071.132681,-8660.409521,1072.533697
1266.170835,-3552.988522,-8586.388927,1072.533697
1266.171148,-3478.967927,-8660.409521,1225.752797
1266.171460,-4071.132681,-8512.368333,1532.190996
1266.171773,-3701.029710,-8660.409521,1302.362347
1266.172086,-3404.947333,-8216.285956,1455.581446
1266.172399,-3330.926739,-9178.553681,1225.752797
1266.172711,-3775.050304,-8882.471304,459.657299
1266.173024,-3627.009116,-8586.388927,919.314598
1266.173337,-3478.967927,-8808.450710,1149.143247
1266.173650,-3256.906145,-9030.512492,1225.752797
1266.173962,-3330.926739,-9104.533087,1072.533697
1266.174275,-3552.988522,-9104.533087,995.924147
1266.174588,-3256.906145,-8882.471304,1532.190996
1266.174901,-3182.885551,-9030.512492,1225.752797
1266.175213,-3701.029710,-8660.409521,1225.752797
1266.175526,-3849.070898,-8808.450710,842.705048
1266.175839,-3552.988522,-8660.409521,1072.533697
1266.176152,-3330.926739,-8586.388927,766.095498
1266.176464,-3627.009116,-8882.471304,689.485948
1266.176777,-3923.091493,-8660.409521,536.266849
1266.177090,-3552.988522,-8586.388927,842.705048
1266.177402,-3627.009116,-8660.409521,1302.362347
1266.177715,-3627.009116,-8660.409521,1225.752797
1266.178028,-3849.070898,-8438.347739,766.095498
1266.178341,-3775.050304,-8882.471304,995.924147
1266.178653,-3627.009116,-8956.491898,842.705048
1266.178966,-4145.153275,-8882.471304,1072.533697
1266.179279,-3849.070898,-8956.491898,766.095498
1266.179592,-3997.112087,-9030.512492,612.876398
1266.179904,-3775.050304,-8660.409521,689.485948
1266.180217,-4219.173869,-8438.347739,153.219100
1266.180530,-3775.050304,-9178.553681,842.705048
1266.180843,-3701.029710,-9252.574275,842.705048
1266.181155,-3330.926739,-9030.512492,842.705048
1266.181468,-3404.947333,-8586.388927,842.705048
1266.181781,-3330.926739,-8956.491898,995.924147
1266.182094,-3701.029710,-8660.409521,1378.971896
1266.182406,-3256.906145,-8956.491898,1532.190996
1266.182719,-3256.906145,-8586.388927,1608.800546
1266.183032,-3923.091493,-8586.388927,1149.143247
1266.183345,-3923.091493,-9030.512492,1149.143247
1266.183657,-4219.173869,-8734.430116,995.924147
1266.183970,-4219.173869,-8882.471304,1072.533697
1266.184283,-4515.256246,-8364.327145,459.657299
1266.184596,-4441.235652,-8142.265362,536.266849
1266.184908,-4441.235652,-8290.306550,842.705048
1266.185221,-4219.173869,-8142.265362,919.314598
1266.185534,-4441.235652,-8586.388927,842.705048
1266.185846,-4219.173869,-8512.368333,995.924147
1266.186159,-4515.256246,-8364.327145,1149.143247
1266.186472,-4441.235652,-8734.430116,1225.752797
1266.186785,-4367.215058,-8734.430116,1378.971896
1266.187097,-4145.153275,-8438.347739,1608.800546
1266.187410,-4737.318029,-8216.285956,1455.581446
1266.187723,-4071.132681,-8290.306550,1455.581446
1266.188036,-4515.256246,-8660.409521,1378.971896
1266.188348,-4737.318029,-8586.388927,1378.971896
1266.188661,-4367.215058,-8586.388927,1455.581446
1266.188974,-4071.132681,-8438.347739,1225.752797
1266.189287,-3627.009116,-8438.347739,1149.143247
1266.189599,-3701.029710,-8586.388927,1072.533697
1266.189912,-3849.070898,-8216.285956,766.095498
1266.190225,-4219.173869,-8660.409521,1455.581446
1266.190538,-3775.050304,-8882.471304,1455.581446
1266.190850,-2960.823768,-9030.512492,1302.362347
1266.191163,-3108.864956,-8660.409521,1225.752797
1266.191476,-3404.947333,-8660.409521,1991.848295
1266.191789,-3108.864956,-9030.512492,1991.848295
1266.192101,-3330.926739,-8808.450710,1838.629195
1266.192414,-3034.844362,-8808.450710,1455.581446
1266.192727,-3330.926739,-9104.533087,1455.581446
1266.193040,-3256.906145,-8882.471304,1455.581446
1266.193352,-3404.947333,-8660.409521,1685.410096
1266.193665,-3923.091493,-8660.409521,1915.238745
1266.193978,-3552.988522,-8586.388927,2221.676944
1266.194290,-3404.947333,-8512.368333,1608.800546
1266.194603,-3478.967927,-8660.409521,1762.019645
1266.194916,-3775.050304,-8290.306550,1302.362347
1266.195229,-3701.029710,-8438.347739,1378.971896
1266.195541,-3775.050304,-8290.306550,1378.971896
1266.195854,-3849.070898,-8216.285956,1378.971896
1266.196167,-3627.009116,-8068.244768,995.924147
1266.196480,-3478.967927,-8438.347739,995.924147
1266.196792,-3849.070898,-8364.327145,1455.581446
1266.197105,-3627.009116,-8512.368333,1685.410096
1266.197418,-3182.885551,-8956.491898,1149.143247
1266.197731,-3330.926739,-9104.533087,1455.581446
1266.198043,-3330.926739,-8956.491898,1378.971896
1266.198356,-3108.864956,-8956.491898,919.314598
1266.198669,-3034.844362,-8882.471304,536.266849
1266.198982,-3034.844362,-8808.450710,536.266849
1266.199294,-2812.782580,-8290.306550,766.095498
1266.199607,-3034.844362,-9030.512492,153.219100
1266.199920,-3256.906145,-8956.491898,536.266849
1266.200233,-2960.823768,-8956.491898,306.438199
1266.200545,-2738.761985,-9252.574275,229.828649
1266.200858,-2664.741391,-9548.656652,153.219100
1266.201171,-2516.700203,-9400.615463,-536.266849
1266.201483,-2812.782580,-9030.512492,153.219100
1266.201796,-3478.967927,-8882.471304,-229.828649
1266.202109,-3034.844362,-9474.636058,0.000000
1266.202422,-3108.864956,-9400.615463,-306.438199
1266.202734,-3627.009116,-9252.574275,-153.219100
1266.203047,-3849.070898,-9326.594869,-153.219100
1266.203360,-3923.091493,-9252.574275,0.000000
1266.203673,-4293.194464,-9252.574275,76.609550
1266.203985,-3849.070898,-9104.533087,-612.876398
1266.204298,-3997.112087,-8660.409521,-383.047749
1266.204611,-3627.009116,-9252.574275,-766.095498
1266.204924,-4071.132681,-8808.450710,-459.657299
1266.205236,-3923.091493,-8734.430116,-306.438199
1266.205549,-3923.091493,-8808.450710,-612.876398
1266.205862,-3775.050304,-8956.491898,-306.438199
1266.206175,-3701.029710,-9252.574275,-689.485948
1266.206487,-3552.988522,-9326.594869,0.000000
1266.206800,-3330.926739,-9400.615463,459.657299
1266.207113,-3404.947333,-9474.636058,995.924147
1266.207426,-3701.029710,-9474.636058,153.219100
1266.207738,-3330.926739,-9474.636058,0.000000
1266.208051,-3256.906145,-9400.615463,-383.047749
1266.208364,-3330.926739,-9030.512492,-229.828649
1266.208677,-3256.906145,-8660.409521,153.219100
1266.208989,-2738.761985,-9104.533087,76.609550
1266.209302,-2812.782580,-9326.594869,919.314598
1266.209615,-3552.988522,-9030.512492,842.705048
1266.209927,-3256.906145,-8956.491898,612.876398
1266.210240,-3256.906145,-9030.512492,536.266849
1266.210553,-3182.885551,-9030.512492,536.266849
1266.210866,-2812.782580,-8586.388927,612.876398
1266.211178,-2886.803174,-8808.450710,1302.362347
1266.211491,-3108.864956,-8882.471304,1685.410096
1266.211804,-3478.967927,-8734.430116,536.266849
1266.212117,-3034.844362,-8808.450710,689.485948
1266.212429,-3256.906145,-8808.450710,919.314598
1266.212742,-3330.926739,-8734.430116,1225.752797
1266.213055,-3256.906145,-8660.409521,1072.533697
1266.213368,-2886.803174,-8808.450710,1302.362347
1266.213680,-3034.844362,-8438.347739,1378.971896
1266.213993,-2960.823768,-8512.368333,1149.143247
1266.214306,-2960.823768,-8808.450710,995.924147
1266.214619,-3256.906145,-8808.450710,1302.362347
1266.214931,-3256.906145,-8882.471304,1532.190996
1266.215244,-3330.926739,-8660.409521,1455.581446
1266.215557,-3182.885551,-8882.471304,1915.238745
1266.215870,-3330.926739,-8956.491898,1149.143247
1266.216182,-3034.844362,-8808.450710,1532.190996
1266.216495,-3552.988522,-8586.388927,1455.581446
1266.216808,-3404.947333,-8734.430116,1455.581446
1266.217121,-3108.864956,-8808.450710,995.924147
1266.217433,-3256.906145,-8586.388927,842.705048
1266.217746,-3108.864956,-8882.471304,1149.143247
1266.218059,-3256.906145,-8586.388927,1532.190996
1266.218371,-3330.926739,-8512.368333,1608.800546
1266.218684,-2590.720797,-9104.533087,1838.629195
1266.218997,-3108.864956,-8586.388927,1685.410096
1266.219310,-3478.967927,-9030.512492,1455.581446
1266.219622,-3552.988522,-8956.491898,1302.362347
1266.219935,-3404.947333,-9030.512492,995.924147
1266.220248,-3404.947333,-9030.512492,919.314598
1266.220561,-3256.906145,-8586.388927,689.485948
1266.220873,-3404.947333,-8660.409521,766.095498
1266.221186,-3552.988522,-8660.409521,536.266849
1266.221499,-3256.906145,-8882.471304,842.705048
1266.221812,-3627.009116,-9252.574275,536.266849
1266.222124,-3330.926739,-8956.491898,689.485948
1266.222437,-3256.906145,-9178.553681,612.876398
1266.222750,-3330.926739,-9178.553681,842.705048
1266.223063,-3404.947333,-8512.368333,995.924147
1266.223375,-3627.009116,-8660.409521,689.485948
1266.223688,-3330.926739,-8808.450710,229.828649
1266.224001,-3627.009116,-8586.388927,0.000000
1266.224314,-3627.009116,-8808.450710,0.000000
1266.224626,-3330.926739,-9178.553681,459.657299
1266.224939,-3478.967927,-8956.491898,76.609550
1266.225252,-3478.967927,-9104.533087,76.609550
1266.225565,-3775.050304,-8808.450710,1072.533697
1266.225877,-2960.823768,-9252.574275,153.219100
1266.226190,-2960.823768,-8734.430116,0.000000
1266.226503,-3182.885551,-9030.512492,0.000000
1266.226816,-3404.947333,-8882.471304,0.000000
1266.227128,-3404.947333,-9030.512492,76.609550
1266.227441,-3330.926739,-9104.533087,0.000000
1266.227754,-3478.967927,-9252.574275,459.657299
1266.228067,-3478.967927,-9178.553681,-153.219100
1266.228379,-3330.926739,-9030.512492,0.000000
1266.228692,-3552.988522,-9326.594869,229.828649
1266.229005,-3330.926739,-9030.512492,229.828649
1266.229318,-3256.906145,-9178.553681,0.000000
1266.229630,-3404.947333,-8882.471304,-306.438199
1266.229943,-3330.926739,-8956.491898,0.000000
1266.230256,-3330.926739,-8956.491898,153.219100
1266.230569,-3330.926739,-9178.553681,383.047749
1266.230881,-3478.967927,-8734.430116,459.657299
1266.231194,-3256.906145,-8956.491898,536.266849
1266.231507,-3182.885551,-9400.615463,459.657299
1266.231820,-3182.885551,-9030.512492,383.047749
1266.232132,-3182.885551,-9326.594869,383.047749
1266.232445,-3701.029710,-9326.594869,766.095498
1266.232758,-3034.844362,-8808.450710,306.438199
1266.233071,-2738.761985,-8808.450710,0.000000
1266.233383,-3108.864956,-8586.388927,459.657299
1266.233696,-3701.029710,-9178.553681,1149.143247
1266.234009,-3256.906145,-9326.594869,766.095498
1266.234322,-3404.947333,-8734.430116,689.485948
1266.234634,-3478.967927,-8882.471304,842.705048
1266.234947,-3404.947333,-8216.285956,919.314598
1266.235260,-3404.947333,-8660.409521,766.095498
1266.235573,-3701.029710,-8364.327145,919.314598
1266.235885,-3923.091493,-8586.388927,1302.362347
1266.236198,-3256.906145,-8586.388927,1072.533697
1266.236511,-2960.823768,-8364.327145,766.095498
1266.236824,-3478.967927,-8438.347739,1455.581446
1266.237136,-3404.947333,-8808.450710,1149.143247
1266.237449,-3034.844362,-8734.430116,766.095498
1266.237762,-3108.864956,-8438.347739,1149.143247
1266.238075,-3404.947333,-8438.347739,1532.190996
1266.238387,-3256.906145,-9252.574275,2221.676944
1266.238700,-3552.988522,-9326.594869,1991.848295
1266.239013,-3552.988522,-8956.491898,1991.848295
1266.239326,-3627.009116,-8586.388927,1532.190996
1266.239638,-3849.070898,-8660.409521,1455.581446
1266.239951,-3775.050304,-8586.388927,766.095498
1266.240264,-3627.009116,-8290.306550,0.000000
1266.240577,-3701.029710,-8068.244768,689.485948
1266.240889,-3478.967927,-8142.265362,1072.533697
1266.241202,-3182.885551,-8216.285956,689.485948
1266.241515,-3330.926739,-8512.368333,995.924147
1266.241828,-3627.009116,-9104.533087,1072.533697
1266.242140,-3256.906145,-9104.533087,766.095498
1266.242453,-2960.823768,-9104.533087,995.924147
1266.242766,-3034.844362,-8956.491898,306.438199
1266.243079,-3182.885551,-9030.512492,1149.143247
1266.243391,-3552.988522,-9104.533087,689.485948
1266.243704,-3701.029710,-9326.594869,766.095498
1266.244017,-3849.070898,-9326.594869,459.657299
1266.244330,-3627.009116,-9030.512492,306.438199
1266.244642,-3997.112087,-9252.574275,1072.533697
1266.244955,-4219.173869,-8956.491898,1532.190996
1266.245268,-4071.132681,-8512.368333,842.705048
1266.245581,-3775.050304,-8068.244768,0.000000
1266.245893,-3701.029710,-8438.347739,153.219100
1266.246206,-3923.091493,-8216.285956,0.000000
1266.246519,-3701.029710,-8438.347739,-153.219100
1266.246832,-3552.988522,-8734.430116,153.219100
1266.247144,-3552.988522,-8586.388927,536.266849
1266.247457,-3182.885551,-8438.347739,383.047749
1266.247770,-3108.864956,-8586.388927,1072.533697
1266.248083,-3330.926739,-9178.553681,1455.581446
1266.248395,-4145.153275,-9474.636058,766.095498
1266.248708,-3701.029710,-9474.636058,536.266849
1266.249021,-3627.009116,-9030.512492,153.219100
1266.249334,-3849.070898,-8956.491898,689.485948
1266.249646,-3552.988522,-9474.636058,1072.533697
1266.249959,-3701.029710,-9548.656652,919.314598
1266.250272,-3330.926739,-9252.574275,0.000000
1266.250585,-4071.132681,-8216.285956,536.266849
1266.250897,-3701.029710,-8734.430116,689.485948
1266.251210,-3404.947333,-8660.409521,383.047749
1266.251523,-3552.988522,-7994.224174,306.438199
1266.251836,-3404.947333,-8438.347739,842.705048
1266.252148,-2960.823768,-8956.491898,842.705048
1266.252461,-3330.926739,-8142.265362,536.266849
1266.252774,-3330.926739,-8216.285956,229.828649
1266.253087,-3627.009116,-9400.615463,919.314598
1266.253399,-3404.947333,-9252.574275,842.705048
1266.253712,-2812.782580,-8956.491898,536.266849
1266.254025,-3330.926739,-8586.388927,1149.143247
1266.254338,-3478.967927,-9104.533087,1302.362347
1266.254650,-3182.885551,-9178.553681,306.438199
1266.254963,-3478.967927,-9252.574275,76.609550
1266.255276,-3404.947333,-8660.409521,-153.219100
1266.255589,-3701.029710,-8734.430116,76.609550
1266.255901,-3627.009116,-9030.512492,383.047749
1266.256214,-3404.947333,-8660.409521,383.047749
1266.256527,-3256.906145,-8956.491898,383.047749
1266.256840,-3330.926739,-8882.471304,76.609550
1266.257152,-3182.885551,-8808.450710,229.828649
1266.257465,-2072.576638,-9030.512492,536.266849
1266.257778,-2590.720797,-8882.471304,306.438199
1266.258091,-2590.720797,-9178.553681,459.657299
1266.258403,-2516.700203,-9326.594869,153.219100
1266.258716,-2368.659014,-9400.615463,76.609550
1266.259029,-2368.659014,-9844.739029,383.047749
1266.259342,-1998.556043,-9548.656652,153.219100
1266.259654,-1850.514855,-9918.759623,0.000000
1266.259967,-1924.535449,-9622.677246,383.047749
1266.260280,-1998.556043,-9474.636058,1302.362347
1266.260593,-2220.617826,-9400.615463,689.485948
1266.260905,-2812.782580,-9622.677246,383.047749
1266.261218,-2960.823768,-9696.697840,229.828649
1266.261531,-2442.679609,-9474.636058,76.609550
1266.261844,-2812.782580,-9252.574275,306.438199
1266.262157,-3701.029710,-9696.697840,612.876398
1266.262469,-3552.988522,-8512.368333,383.047749
1266.262782,-2960.823768,-9030.512492,383.047749
1266.263095,-3849.070898,-8734.430116,0.000000
1266.263408,-4071.132681,-8512.368333,153.219100
1266.263720,-3627.009116,-8512.368333,0.000000
1266.264033,-3256.906145,-8956.491898,0.000000
1266.264346,-3701.029710,-8290.306550,536.266849
1266.264659,-3849.070898,-8438.347739,919.314598
1266.264971,-3404.947333,-8808.450710,766.095498
1266.265284,-3701.029710,-8882.471304,383.047749
1266.265597,-3775.050304,-8956.491898,459.657299
1266.265910,-3701.029710,-9178.553681,766.095498
1266.266222,-3775.050304,-9030.512492,766.095498
1266.266535,-3034.844362,-8586.388927,536.266849
1266.266848,-3330.926739,-8512.368333,919.314598
1266.267161,-3849.070898,-8364.327145,1149.143247
1266.267473,-3330.926739,-8808.450710,766.095498
1266.267786,-3404.947333,-8734.430116,536.266849
1266.268099,-3701.029710,-8808.450710,842.705048
1266.268412,-3775.050304,-8734.430116,689.485948
1266.268724,-3775.050304,-8512.368333,1072.533697
1266.269037,-3775.050304,-8142.265362,766.095498
1266.269350,-3775.050304,-9178.553681,612.876398
1266.269663,-3627.009116,-8438.347739,1072.533697
1266.269975,-3849.070898,-8290.306550,919.314598
1266.270288,-3923.091493,-8586.388927,536.266849
1266.270601,-3849.070898,-8660.409521,766.095498
1266.270914,-3701.029710,-8734.430116,842.705048
1266.271226,-3849.070898,-8808.450710,919.314598
1266.271539,-3849.070898,-8808.450710,1378.971896
1266.271852,-3701.029710,-8882.471304,1532.190996
1266.272165,-3849.070898,-9178.553681,995.924147
1266.272477,-4145.153275,-8808.450710,612.876398
1266.272790,-3552.988522,-9030.512492,766.095498
1266.273103,-3034.844362,-8956.491898,383.047749
1266.273416,-2886.803174,-9030.512492,612.876398
1266.273728,-3108.864956,-9104.533087,766.095498
1266.274041,-3256.906145,-9178.553681,1608.800546
1266.274354,-2368.659014,-9400.615463,1608.800546
1266.274667,-3182.885551,-9178.553681,1378.971896
1266.274979,-2886.803174,-9178.553681,842.705048
1266.275292,-2516.700203,-9252.574275,919.314598
1266.275605,-2886.803174,-9252.574275,842.705048
1266.275918,-2960.823768,-9104.533087,536.266849
1266.276230,-2886.803174,-9252.574275,229.828649
1266.276543,-2738.761985,-8808.450710,919.314598
1266.276856,-2960.823768,-8290.306550,76.609550
1266.277169,-2664.741391,-9104.533087,536.266849
1266.277481,-2738.761985,-9178.553681,689.485948
1266.277794,-2812.782580,-9104.533087,766.095498
1266.278107,-2812.782580,-9178.553681,919.314598
1266.278420,-2516.700203,-9178.553681,612.876398
1266.278732,-2738.761985,-8882.471304,383.047749
1266.279045,-2516.700203,-9104.533087,612.876398
1266.279358,-2886.803174,-8956.491898,459.657299
1266.279671,-2664.741391,-9030.512492,536.266849
1266.279983,-3182.885551,-9030.512492,995.924147
1266.280296,-3330.926739,-9326.594869,995.924147
1266.280609,-3552.988522,-9252.574275,766.095498
1266.280922,-3627.009116,-8956.491898,459.657299
1266.281234,-4071.132681,-8808.450710,766.095498
1266.281547,-4071.132681,-8734.430116,689.485948
1266.281860,-3923.091493,-8512.368333,995.924147
1266.282173,-4145.153275,-8586.388927,229.828649
1266.282485,-4737.318029,-8068.244768,383.047749
1266.282798,-4367.215058,-8512.368333,153.219100
1266.283111,-4219.173869,-8734.430116,0.000000
1266.283424,-3923.091493,-8586.388927,0.000000
1266.283736,-3923.091493,-7846.182985,306.438199
1266.284049,-3701.029710,-8512.368333,536.266849
1266.284362,-3256.906145,-8660.409521,995.924147
1266.284675,-3404.947333,-8882.471304,689.485948
1266.284987,-3108.864956,-9104.533087,536.266849
1266.285300,-3478.967927,-9252.574275,306.438199
1266.285613,-3552.988522,-9326.594869,766.095498
1266.285926,-2960.823768,-9326.594869,842.705048
1266.286238,-3034.844362,-9252.574275,1072.533697
1266.286551,-3256.906145,-9178.553681,1149.143247
1266.286864,-3182.885551,-9104.533087,459.657299
1266.287177,-3701.029710,-9030.512492,306.438199
1266.287489,-3627.009116,-8882.471304,229.828649
1266.287802,-3404.947333,-8808.450710,459.657299
1266.288115,-3997.112087,-8512.368333,306.438199
1266.288428,-3478.967927,-8586.388927,459.657299
1266.288740,-4293.194464,-8586.388927,229.828649
1266.289053,-3627.009116,-8956.491898,842.705048
1266.289366,-3775.050304,-8660.409521,1072.533697
1266.289679,-3997.112087,-8660.409521,995.924147
1266.289991,-4219.173869,-8808.450710,1225.752797
1266.290304,-4515.256246,-8586.388927,1302.362347
1266.290617,-4293.194464,-8660.409521,1762.019645
1266.290930,-4145.153275,-8734.430116,1991.848295
1266.291242,-4515.256246,-8586.388927,1608.800546
1266.291555,-4145.153275,-8512.368333,2068.457845
1266.291868,-3997.112087,-8364.327145,1225.752797
1266.292181,-3923.091493,-8586.388927,919.314598
1266.292493,-4145.153275,-8512.368333,995.924147
1266.292806,-3627.009116,-8216.285956,919.314598
1266.293119,-3256.906145,-8734.430116,536.266849
1266.293432,-3701.029710,-8586.388927,1302.362347
1266.293744,-3478.967927,-7772.162391,1685.410096
1266.294057,-2960.823768,-8734.430116,1608.800546
1266.294370,-3182.885551,-9104.533087,1685.410096
1266.294683,-3256.906145,-8956.491898,1838.629195
1266.294995,-3330.926739,-8882.471304,1991.848295
1266.295308,-3701.029710,-9030.512492,2298.286494
1266.295621,-4071.132681,-8882.471304,2145.067394
1266.295934,-3849.070898,-8660.409521,1762.019645
1266.296246,-4071.132681,-8438.347739,1762.019645
1266.296559,-4071.132681,-8438.347739,1149.143247
1266.296872,-4293.194464,-8364.327145,1378.971896
1266.297185,-4367.215058,-8290.306550,1302.362347
1266.297497,-4515.256246,-8364.327145,1608.800546
1266.297810,-4441.235652,-7920.203579,1762.019645
1266.298123,-4071.132681,-7994.224174,1838.629195
1266.298436,-4589.276840,-8216.285956,1685.410096
1266.298748,-4219.173869,-8290.306550,1991.848295
1266.299061,-4071.132681,-8364.327145,1838.629195
1266.299374,-4145.153275,-8660.409521,1762.019645
1266.299687,-4293.194464,-8586.388927,1915.238745
1266.299999,-4515.256246,-8734.430116,2374.896044
1266.300312,-4589.276840,-8660.409521,2068.457845
1266.300625,-4071.132681,-8438.347739,1532.190996
1266.300938,-4071.132681,-8216.285956,1532.190996
1266.301250,-4515.256246,-7846.182985,2298.286494
1266.301563,-3849.070898,-8512.368333,1685.410096
1266.301876,-4071.132681,-8438.347739,1225.752797
1266.302189,-3923.091493,-8216.285956,1072.533697
1266.302501,-3701.029710,-8142.265362,1072.533697
1266.302814,-3330.926739,-8364.327145,1378.971896
1266.303127,-2664.741391,-8956.491898,1455.581446
1266.303440,-3034.844362,-8438.347739,1838.629195
1266.303752,-3404.947333,-8734.430116,2068.457845
1266.304065,-3627.009116,-8882.471304,1532.190996
1266.304378,-3256.906145,-8956.491898,995.924147
1266.304691,-3330.926739,-8956.491898,1072.533697
1266.305003,-3478.967927,-9104.533087,1378.971896
1266.305316,-3256.906145,-8956.491898,842.705048
1266.305629,-3404.947333,-8882.471304,995.924147
1266.305942,-3701.029710,-9178.553681,536.266849
1266.306254,-3478.967927,-9252.574275,536.266849
1266.306567,-3256.906145,-9104.533087,536.266849
1266.306880,-3627.009116,-9104.533087,689.485948
1266.307193,-3849.070898,-8882.471304,919.314598
1266.307505,-3923.091493,-8808.450710,689.485948
1266.307818,-3701.029710,-8438.347739,0.000000
1266.308131,-3552.988522,-8660.409521,536.266849
1266.308444,-3701.029710,-8586.388927,842.705048
1266.308756,-3552.988522,-8808.450710,0.000000
1266.309069,-3849.070898,-8956.491898,383.047749
1266.309382,-3923.091493,-8956.491898,536.266849
1266.309695,-3997.112087,-8882.471304,459.657299
1266.310007,-3627.009116,-9474.636058,766.095498
1266.310320,-3997.112087,-9104.533087,459.657299
1266.310633,-3627.009116,-8512.368333,689.485948
1266.310946,-3923.091493,-8734.430116,536.266849
1266.311258,-4367.215058,-8882.471304,536.266849
1266.311571,-4145.153275,-8882.471304,229.828649
1266.311884,-4367.215058,-8734.430116,229.828649
1266.312197,-4219.173869,-8660.409521,536.266849
1266.312509,-3997.112087,-8512.368333,612.876398
1266.312822,-4367.215058,-9252.574275,153.219100
1266.313135,-4071.132681,-9030.512492,1302.362347
1266.313448,-4441.235652,-8734.430116,1072.533697
1266.313760,-4219.173869,-8734.430116,995.924147
1266.314073,-4071.132681,-8808.450710,919.314598
1266.314386,-3923.091493,-8734.430116,995.924147
1266.314699,-4293.194464,-8882.471304,1225.752797
1266.315011,-4219.173869,-8512.368333,1149.143247
1266.315324,-4071.132681,-8290.306550,1302.362347
1266.315637,-4219.173869,-8438.347739,1532.190996
1266.315950,-4071.132681,-8660.409521,1685.410096
1266.316262,-4367.215058,-8438.347739,1608.800546
1266.316575,-4219.173869,-8660.409521,1455.581446
1266.316888,-4293.194464,-8660.409521,1455.581446
1266.317201,-3997.112087,-8512.368333,1532.190996
1266.317513,-3923.091493,-8660.409521,1455.581446
1266.317826,-3627.009116,-8142.265362,1532.190996
1266.318139,-3478.967927,-8512.368333,2068.457845
1266.318452,-3627.009116,-8660.409521,1302.362347
1266.318764,-3627.009116,-8586.388927,1838.629195
1266.319077,-3627.009116,-8734.430116,2145.067394
1266.319390,-3775.050304,-8512.368333,1991.848295
1266.319703,-3404.947333,-8438.347739,2145.067394
1266.320015,-3478.967927,-8512.368333,2374.896044
1266.320328,-3627.009116,-8808.450710,1455.581446
1266.320641,-3701.029710,-8216.285956,1915.238745
1266.320954,-3701.029710,-8512.368333,1532.190996
1266.321266,-3701.029710,-8586.388927,1455.581446
1266.321579,-3701.029710,-8512.368333,1685.410096
1266.321892,-3775.050304,-8586.388927,1915.238745
1266.322205,-3478.967927,-8512.368333,1608.800546
1266.322517,-3330.926739,-8512.368333,1455.581446
1266.322830,-3404.947333,-8660.409521,1685.410096
1266.323143,-4071.132681,-8290.306550,1455.581446
1266.323456,-3404.947333,-8956.491898,1532.190996
1266.323768,-3330.926739,-8438.347739,1378.971896
1266.324081,-4071.132681,-8734.430116,1685.410096
1266.324394,-4145.153275,-9030.512492,2145.067394
1266.324707,-3923.091493,-8882.471304,995.924147
1266.325019,-3701.029710,-8512.368333,1532.190996
1266.325332,-3256.906145,-8882.471304,995.924147
1266.325645,-3627.009116,-8660.409521,1072.533697
1266.325958,-3997.112087,-8808.450710,1149.143247
1266.326270,-4441.235652,-8882.471304,1302.362347
1266.326583,-4367.215058,-8808.450710,1455.581446
1266.326896,-3849.070898,-8808.450710,1378.971896
1266.327209,-3552.988522,-8808.450710,995.924147
1266.327521,-4145.153275,-8438.347739,919.314598
1266.327834,-4071.132681,-8216.285956,383.047749
1266.328147,-4293.194464,-8808.450710,919.314598
1266.328460,-4219.173869,-8808.450710,459.657299
1266.328772,-3849.070898,-8808.450710,383.047749
1266.329085,-4367.215058,-9030.512492,995.924147
1266.329398,-4367.215058,-8660.409521,1149.143247
1266.329711,-3997.112087,-8364.327145,1378.971896
1266.330023,-4071.132681,-8586.388927,612.876398
1266.330336,-4145.153275,-8956.491898,689.485948
1266.330649,-4441.235652,-8734.430116,0.000000
1266.330962,-3701.029710,-8586.388927,-153.219100
1266.331274,-3923.091493,-8438.347739,229.828649
1266.331587,-4071.132681,-8512.368333,919.314598
1266.331900,-3849.070898,-8512.368333,919.314598
1266.332213,-3701.029710,-8734.430116,612.876398
1266.332525,-3330.926739,-9400.615463,383.047749
1266.332838,-3849.070898,-8882.471304,383.047749
1266.333151,-3701.029710,-8956.491898,459.657299
1266.333464,-3404.947333,-8808.450710,1072.533697
1266.333776,-3256.906145,-9104.533087,919.314598
1266.334089,-3404.947333,-9252.574275,995.924147
1266.334402,-3997.112087,-8882.471304,919.314598
1266.334715,-3923.091493,-8734.430116,995.924147
1266.335027,-3182.885551,-9104.533087,1532.190996
1266.335340,-3330.926739,-9326.594869,1608.800546
1266.335653,-3478.967927,-8956.491898,1378.971896
1266.335966,-3108.864956,-8512.368333,1072.533697
1266.336278,-3330.926739,-8808.450710,689.485948
1266.336591,-3552.988522,-8734.430116,459.657299
1266.336904,-3552.988522,-8438.347739,689.485948
1266.337217,-3552.988522,-8660.409521,1072.533697
1266.337529,-3330.926739,-8808.450710,1225.752797
1266.337842,-3182.885551,-8882.471304,1608.800546
1266.338155,-3701.029710,-8734.430116,1762.019645
1266.338468,-4071.132681,-9326.594869,1915.238745
1266.338780,-3478.967927,-9474.636058,1532.190996
1266.339093,-3404.947333,-8734.430116,1072.533697
1266.339406,-3627.009116,-8882.471304,1302.362347
1266.339719,-3775.050304,-8586.388927,1762.019645
1266.340031,-3701.029710,-9030.512492,1915.238745
1266.340344,-3627.009116,-8734.430116,919.314598
1266.340657,-3923.091493,-8290.306550,919.314598
1266.340970,-4293.194464,-8660.409521,1149.143247
1266.341282,-3775.050304,-8956.491898,1225.752797
1266.341595,-3404.947333,-7920.203579,1072.533697
1266.341908,-4071.132681,-8068.244768,1225.752797
1266.342221,-3923.091493,-8882.471304,1685.410096
1266.342533,-3552.988522,-8734.430116,2068.457845
1266.342846,-3552.988522,-8364.327145,1302.362347
1266.343159,-3923.091493,-8586.388927,1455.581446
1266.343472,-4441.235652,-9252.574275,1762.019645
1266.343784,-3997.112087,-8956.491898,1762.019645
1266.344097,-3478.967927,-8660.409521,1455.581446
1266.344410,-4219.173869,-8808.450710,2068.457845
1266.344723,-3997.112087,-8882.471304,2298.286494
1266.345035,-3701.029710,-8660.409521,919.314598
1266.345348,-4071.132681,-8586.388927,1455.581446
1266.345661,-3923.091493,-8364.327145,1149.143247
1266.345974,-3923.091493,-8438.347739,1225.752797
1266.346286,-3997.112087,-8956.491898,1532.190996
1266.346599,-3775.050304,-8660.409521,919.314598
1266.346912,-3923.091493,-8290.306550,1608.800546
1266.347225,-3997.112087,-8808.450710,1991.848295
1266.347537,-4367.215058,-8438.347739,1838.629195
1266.347850,-4441.235652,-8512.368333,1838.629195
1266.348163,-4811.338623,-8586.388927,1838.629195
1266.348476,-4959.379811,-8808.450710,1762.019645
1266.348788,-4737.318029,-8512.368333,2068.457845
1266.349101,-4959.379811,-7994.224174,1302.362347
1266.349414,-5625.565159,-7698.141797,1608.800546
1266.349727,-5699.585753,-7550.100608,1072.533697
1266.350039,-5477.523971,-8216.285956,919.314598
1266.350352,-4959.379811,-7994.224174,536.266849
1266.350665,-4589.276840,-7772.162391,612.876398
1266.350978,-4441.235652,-7772.162391,1302.362347
1266.351290,-4589.276840,-7772.162391,1532.190996
1266.351603,-3775.050304,-8068.244768,1915.238745
1266.351916,-3552.988522,-8438.347739,1225.752797
1266.352229,-3627.009116,-8586.388927,1225.752797
1266.352541,-3849.070898,-8808.450710,1532.190996
1266.352854,-3256.906145,-8956.491898,1378.971896
1266.353167,-3108.864956,-9326.594869,1762.019645
1266.353480,-3923.091493,-9252.574275,1915.238745
1266.353792,-3701.029710,-8808.450710,1608.800546
1266.354105,-3404.947333,-8882.471304,1072.533697
1266.354418,-2960.823768,-9844.739029,459.657299
1266.354731,-3627.009116,-8808.450710,1072.533697
1266.355043,-3552.988522,-8586.388927,995.924147
1266.355356,-3404.947333,-8512.368333,842.705048
1266.355669,-3330.926739,-8586.388927,919.314598
1266.355982,-3404.947333,-8512.368333,536.266849
1266.356294,-3182.885551,-8808.450710,612.876398
1266.356607,-3182.885551,-8808.450710,1225.752797
1266.356920,-2738.761985,-8956.491898,1532.190996
1266.357233,-3775.050304,-9178.553681,1302.362347
1266.357545,-3849.070898,-9252.574275,1302.362347
1266.357858,-3775.050304,-9178.553681,1378.971896
1266.358171,-3478.967927,-9178.553681,766.095498
1266.358484,-3627.009116,-8808.450710,1225.752797
1266.358796,-3478.967927,-8956.491898,1072.533697
1266.359109,-3478.967927,-8660.409521,1225.752797
1266.359422,-3849.070898,-8956.491898,1072.533697
1266.359735,-4367.215058,-8512.368333,842.705048
1266.360047,-4071.132681,-8512.368333,842.705048
1266.360360,-3997.112087,-8512.368333,766.095498
1266.360673,-3849.070898,-8512.368333,842.705048
1266.360986,-4219.173869,-8438.347739,995.924147
1266.361298,-3404.947333,-8956.491898,612.876398
1266.361611,-3997.112087,-8290.306550,766.095498
1266.361924,-3478.967927,-8586.388927,766.095498
1266.362237,-3330.926739,-8808.450710,459.657299
1266.362549,-3404.947333,-9178.553681,842.705048
1266.362862,-3552.988522,-9400.615463,1149.143247
1266.363175,-3330.926739,-9326.594869,1685.410096
1266.363488,-3108.864956,-8956.491898,1991.848295
1266.363800,-3478.967927,-9030.512492,1072.533697
1266.364113,-3478.967927,-9178.553681,1455.581446
1266.364426,-3627.009116,-9104.533087,919.314598
1266.364739,-3997.112087,-8660.409521,536.266849
1266.365051,-4071.132681,-8734.430116,766.095498
1266.365364,-4219.173869,-8438.347739,536.266849
1266.365677,-4589.276840,-8068.244768,1302.362347
1266.365990,-4515.256246,-8586.388927,766.095498
1266.366302,-4145.153275,-8808.450710,153.219100
1266.366615,-4441.235652,-8660.409521,1149.143247
1266.366928,-4737.318029,-8660.409521,1762.019645
1266.367240,-4589.276840,-8808.450710,1685.410096
1266.367553,-4515.256246,-8808.450710,1225.752797
1266.367866,-4589.276840,-8586.388927,1378.971896
1266.368179,-4589.276840,-8290.306550,1302.362347
1266.368491,-4663.297435,-8142.265362,1072.533697
1266.368804,-4441.235652,-8586.388927,1149.143247
1266.369117,-4441.235652,-8364.327145,1608.800546
1266.369430,-4885.359217,-8586.388927,1378.971896
1266.369742,-4663.297435,-8438.347739,1072.533697
1266.370055,-4367.215058,-8660.409521,995.924147
1266.370368,-4219.173869,-8438.347739,1455.581446
1266.370681,-3849.070898,-8290.306550,1608.800546
1266.370993,-3701.029710,-8068.244768,1455.581446
1266.371306,-3108.864956,-8290.306550,1072.533697
1266.371619,-3701.029710,-8068.244768,1149.143247
1266.371932,-3552.988522,-8956.491898,1378.971896
1266.372244,-3478.967927,-9030.512492,1608.800546
1266.372557,-3108.864956,-9252.574275,1762.019645
1266.372870,-3034.844362,-9252.574275,2145.067394
1266.373183,-3256.906145,-9104.533087,1838.629195
1266.373495,-3552.988522,-8808.450710,1762.019645
1266.373808,-3108.864956,-9252.574275,2298.286494
1266.374121,-3404.947333,-9030.512492,1532.190996
1266.374434,-3256.906145,-8734.430116,1072.533697
1266.374746,-3404.947333,-8586.388927,1225.752797
1266.375059,-3552.988522,-8734.430116,1455.581446
1266.375372,-3552.988522,-8586.388927,1532.190996
1266.375685,-4293.194464,-8364.327145,1838.629195
1266.375997,-3701.029710,-8734.430116,1915.238745
1266.376310,-3478.967927,-8512.368333,1149.143247
1266.376623,-3627.009116,-8734.430116,1608.800546
1266.376936,-3923.091493,-8660.409521,1455.581446
1266.377248,-4071.132681,-8216.285956,1685.410096
1266.377561,-3552.988522,-8364.327145,1302.362347
1266.377874,-3775.050304,-8364.327145,919.314598
1266.378187,-3627.009116,-8512.368333,689.485948
1266.378499,-3182.885551,-8512.368333,766.095498
1266.378812,-3034.844362,-8142.265362,766.095498
1266.379125,-3404.947333,-8734.430116,1532.190996
1266.379438,-2960.823768,-9030.512492,1455.581446
1266.379750,-2590.720797,-9104.533087,842.705048
1266.380063,-2590.720797,-9104.533087,689.485948
1266.380376,-2812.782580,-9178.553681,306.438199
1266.380689,-2738.761985,-8586.388927,-306.438199
1266.381001,-3182.885551,-8734.430116,229.828649
1266.381314,-2664.741391,-9252.574275,0.000000
1266.381627,-2516.700203,-9474.636058,383.047749
1266.381940,-2738.761985,-9474.636058,383.047749
1266.382252,-2812.782580,-9474.636058,459.657299
1266.382565,-3182.885551,-9474.636058,689.485948
1266.382878,-3256.906145,-9400.615463,842.705048
1266.383191,-3034.844362,-9178.553681,76.609550
1266.383503,-3627.009116,-9326.594869,-612.876398
1266.383816,-3849.070898,-8808.450710,-766.095498
1266.384129,-3923.091493,-9178.553681,-383.047749
1266.384442,-4145.153275,-8882.471304,-459.657299
1266.384754,-4441.235652,-8956.491898,0.000000
1266.385067,-4219.173869,-9178.553681,153.219100
1266.385380,-4515.256246,-9178.553681,229.828649
1266.385693,-4441.235652,-9104.533087,153.219100
1266.386005,-4219.173869,-8438.347739,0.000000
1266.386318,-3923.091493,-8734.430116,-536.266849
1266.386631,-3997.112087,-8808.450710,-536.266849
1266.386944,-3775.050304,-8808.450710,-383.047749
1266.387256,-3404.947333,-9178.553681,-306.438199
1266.387569,-3478.967927,-9474.636058,536.266849
1266.387882,-3404.947333,-9252.574275,0.000000
1266.388195,-3330.926739,-9400.615463,459.657299
1266.388507,-2886.803174,-9474.636058,229.828649
1266.388820,-3108.864956,-9548.656652,229.828649
1266.389133,-3108.864956,-9548.656652,153.219100
1266.389446,-3034.844362,-9400.615463,0.000000
1266.389758,-3034.844362,-9400.615463,0.000000
1266.390071,-3108.864956,-9104.533087,306.438199
1266.390384,-3256.906145,-9104.533087,919.314598
1266.390697,-3478.967927,-9326.594869,919.314598
1266.391009,-3997.112087,-8808.450710,459.657299
1266.391322,-3627.009116,-8956.491898,689.485948
1266.391635,-3330.926739,-8882.471304,383.047749
1266.391948,-3478.967927,-8512.368333,306.438199
1266.392260,-3552.988522,-8438.347739,383.047749
1266.392573,-3256.906145,-8290.306550,689.485948
1266.392886,-3552.988522,-8438.347739,1455.581446
1266.393199,-3256.906145,-8586.388927,1072.533697
1266.393511,-3404.947333,-8660.409521,1072.533697
1266.393824,-3256.906145,-8956.491898,1378.971896
1266.394137,-3478.967927,-9178.553681,1608.800546
1266.394450,-3108.864956,-9104.533087,1455.581446
1266.394762,-2886.803174,-9030.512492,1608.800546
1266.395075,-3256.906145,-8882.471304,1455.581446
1266.395388,-2960.823768,-8586.388927,383.047749
1266.395701,-3182.885551,-8290.306550,842.705048
1266.396013,-3182.885551,-8808.450710,919.314598
1266.396326,-3256.906145,-8512.368333,1302.362347
1266.396639,-3034.844362,-8734.430116,1225.752797
1266.396952,-3108.864956,-8438.347739,1225.752797
1266.397264,-3182.885551,-8438.347739,1455.581446
1266.397577,-2960.823768,-8734.430116,1685.410096
1266.397890,-3478.967927,-8438.347739,1225.752797
1266.398203,-3404.947333,-8808.450710,1225.752797
1266.398515,-3256.906145,-8734.430116,1225.752797
1266.398828,-3256.906145,-8734.430116,1149.143247
1266.399141,-3478.967927,-8660.409521,1225.752797
1266.399454,-3478.967927,-8734.430116,1302.362347
1266.399766,-3627.009116,-8438.347739,1225.752797
1266.400079,-3404.947333,-8808.450710,1455.581446
1266.400392,-3775.050304,-8956.491898,1532.190996
1266.400705,-3330.926739,-8956.491898,1302.362347
1266.401017,-3404.947333,-8734.430116,919.314598
1266.401330,-3478.967927,-8512.368333,1072.533697
1266.401643,-3256.906145,-8512.368333,689.485948
1266.401956,-2960.823768,-8364.327145,612.876398
1266.402268,-3182.885551,-8216.285956,306.438199
1266.402581,-3256.906145,-8808.450710,995.924147
1266.402894,-3256.906145,-8882.471304,689.485948
1266.403207,-3182.885551,-8956.491898,459.657299
1266.403519,-3256.906145,-9252.574275,919.314598
1266.403832,-3330.926739,-9474.636058,1072.533697
1266.404145,-3552.988522,-9400.615463,612.876398
1266.404458,-3701.029710,-9400.615463,612.876398
1266.404770,-3775.050304,-9104.533087,76.609550
1266.405083,-3552.988522,-9104.533087,0.000000
1266.405396,-3627.009116,-8734.430116,229.828649
1266.405709,-3849.070898,-9030.512492,0.000000
1266.406021,-3701.029710,-8586.388927,0.000000
1266.406334,-3627.009116,-8734.430116,76.609550
1266.406647,-3552.988522,-8808.450710,-153.219100
1266.406960,-3404.947333,-8808.450710,-76.609550
1266.407272,-3330.926739,-8364.327145,-306.438199
1266.407585,-2812.782580,-8956.491898,229.828649
1266.407898,-3182.885551,-8586.388927,76.609550
1266.408211,-2960.823768,-9400.615463,153.219100
1266.408523,-3330.926739,-9104.533087,0.000000
1266.408836,-3034.844362,-9622.677246,76.609550
1266.409149,-3404.947333,-9474.636058,229.828649
1266.409462,-3478.967927,-9474.636058,0.000000
1266.409774,-3997.112087,-9252.574275,459.657299
1266.410087,-3478.967927,-9474.636058,536.266849
1266.410400,-3849.070898,-8956.491898,229.828649
1266.410713,-3775.050304,-9104.533087,-229.828649
1266.411025,-3701.029710,-8956.491898,0.000000
1266.411338,-3256.906145,-9178.553681,-306.438199
1266.411651,-3552.988522,-8290.306550,-919.314598
1266.411964,-3330.926739,-8512.368333,229.828649
1266.412276,-3478.967927,-8734.430116,229.828649
1266.412589,-2886.803174,-8734.430116,-229.828649
1266.412902,-2886.803174,-8808.450710,306.438199
1266.413215,-3849.070898,-8808.450710,919.314598
1266.413527,-3552.988522,-9474.636058,1072.533697
1266.413840,-2738.761985,-9400.615463,536.266849
1266.414153,-3108.864956,-8882.471304,459.657299
1266.414466,-3330.926739,-8956.491898,1072.533697
1266.414778,-3108.864956,-9400.615463,919.314598
1266.415091,-3627.009116,-9030.512492,842.705048
1266.415404,-4071.132681,-9030.512492,995.924147
1266.415717,-3923.091493,-9178.553681,1072.533697
1266.416029,-3108.864956,-8882.471304,612.876398
1266.416342,-3182.885551,-8438.347739,689.485948
1266.416655,-3627.009116,-8216.285956,842.705048
1266.416968,-3108.864956,-8364.327145,1072.533697
1266.417280,-2886.803174,-7994.224174,383.047749
1266.417593,-3034.844362,-7772.162391,459.657299
1266.417906,-3478.967927,-8364.327145,1149.143247
1266.418218,-3701.029710,-8882.471304,1838.629195
1266.418531,-3478.967927,-9252.574275,2221.676944
1266.418844,-3478.967927,-8882.471304,3294.210641
1266.419157,-3849.070898,-8734.430116,2221.676944
1266.419469,-3997.112087,-8438.347739,1532.190996
1266.419782,-3849.070898,-8512.368333,842.705048
1266.420095,-3478.967927,-8364.327145,766.095498
1266.420408,-3552.988522,-8438.347739,459.657299
1266.420720,-3552.988522,-8216.285956,536.266849
1266.421033,-3330.926739,-8364.327145,1072.533697
1266.421346,-3330.926739,-8438.347739,1225.752797
1266.421659,-2960.823768,-8364.327145,995.924147
1266.421971,-2590.720797,-8808.450710,1072.533697
1266.422284,-3034.844362,-8660.409521,459.657299
1266.422597,-2738.761985,-8882.471304,612.876398
1266.422910,-2960.823768,-9474.636058,1072.533697
1266.423222,-3404.947333,-9548.656652,1762.019645
1266.423535,-3775.050304,-9326.594869,1685.410096
1266.423848,-3701.029710,-9474.636058,1532.190996
1266.424161,-3627.009116,-8956.491898,1072.533697
1266.424473,-3552.988522,-9104.533087,306.438199
1266.424786,-3923.091493,-8586.388927,306.438199
1266.425099,-3923.091493,-8438.347739,-153.219100
1266.425412,-3478.967927,-8290.306550,-536.266849
1266.425724,-4145.153275,-8142.265362,0.000000
1266.426037,-4145.153275,-8438.347739,306.438199
1266.426350,-3330.926739,-8808.450710,383.047749
1266.426663,-3256.906145,-8660.409521,689.485948
1266.426975,-3701.029710,-8882.471304,306.438199
1266.427288,-3404.947333,-8956.491898,995.924147
1266.427601,-3849.070898,-9400.615463,1149.143247
1266.427914,-3701.029710,-9474.636058,1225.752797
1266.428226,-3701.029710,-9178.553681,612.876398
1266.428539,-3849.070898,-8956.491898,459.657299
1266.428852,-4145.153275,-9252.574275,1225.752797
1266.429165,-3775.050304,-9622.677246,536.266849
1266.429477,-3552.988522,-9178.553681,-306.438199
1266.429790,-3923.091493,-8882.471304,0.000000
1266.430103,-3627.009116,-9178.553681,306.438199
1266.430416,-3108.864956,-8808.450710,76.609550
1266.430728,-3330.926739,-8142.265362,153.219100
