#time,accel_x,accel_y,accel_z
1136.400340,-3627.009116,-8808.450710,919.314598
1136.400653,-3701.029710,-8808.450710,842.705048
1136.400965,-3849.070898,-8808.450710,842.705048
1136.401278,-3256.906145,-9252.574275,306.438199
1136.401590,-3849.070898,-8512.368333,536.266849
1136.401902,-3478.967927,-9030.512492,1225.752797
1136.402215,-3552.988522,-8882.471304,919.314598
1136.402527,-3701.029710,-8956.491898,1149.143247
1136.402840,-3701.029710,-8808.450710,995.924147
1136.403152,-3552.988522,-8734.430116,995.924147
1136.403465,-3478.967927,-8882.471304,919.314598
1136.403777,-3849.070898,-8956.491898,1838.629195
1136.404090,-3404.947333,-8808.450710,612.876398
1136.404402,-3849.070898,-8660.409521,536.266849
1136.404715,-3552.988522,-8882.471304,689.485948
1136.405027,-3775.050304,-8808.450710,536.266849
1136.405340,-3627.009116,-8882.471304,919.314598
1136.405652,-3256.906145,-8882.471304,1455.581446
1136.405965,-3182.885551,-8882.471304,919.314598
1136.406277,-3404.947333,-9030.512492,919.314598
1136.406590,-3627.009116,-8512.368333,995.924147
1136.406902,-3627.009116,-8660.409521,766.095498
1136.407215,-3627.009116,-8734.430116,995.924147
1136.407527,-3701.029710,-8956.491898,919.314598
1136.407839,-3775.050304,-8808.450710,842.705048
1136.408152,-3478.967927,-8882.471304,1149.143247
1136.408464,-3330.926739,-8882.471304,1532.190996
1136.408777,-3552.988522,-8882.471304,1225.752797
1136.409089,-3404.947333,-8808.450710,919.314598
1136.409402,-3627.009116,-8808.450710,919.314598
1136.409714,-3627.009116,-8956.491898,919.314598
1136.410027,-3701.029710,-8882.471304,842.705048
1136.410339,-3552.988522,-8734.430116,919.314598
1136.410652,-3627.009116,-8586.388927,919.314598
1136.410964,-3775.050304,-8364.327145,612.876398
1136.411277,-3256.906145,-8808.450710,536.266849
1136.411589,-3478.967927,-8512.368333,919.314598
1136.411902,-3627.009116,-8808.450710,995.924147
1136.412214,-3849.070898,-8882.471304,842.705048
1136.412527,-3775.050304,-8808.450710,919.314598
1136.412839,-3627.009116,-8808.450710,689.485948
1136.413152,-3552.988522,-8808.450710,1072.533697
1136.413464,-3478.967927,-8660.409521,842.705048
1136.413776,-3701.029710,-8512.368333,842.705048
1136.414089,-3627.009116,-8808.450710,919.314598
1136.414401,-3701.029710,-8956.491898,766.095498
1136.414714,-3552.988522,-8734.430116,766.095498
1136.415026,-3627.009116,-9104.533087,995.924147
1136.415339,-3627.009116,-8290.306550,842.705048
1136.415651,-3775.050304,-8364.327145,766.095498
1136.415964,-3108.864956,-9178.553681,995.924147
1136.416276,-3552.988522,-8586.388927,995.924147
1136.416589,-3552.988522,-8808.450710,842.705048
1136.416901,-3478.967927,-8882.471304,766.095498
1136.417214,-3701.029710,-8734.430116,919.314598
1136.417526,-3701.029710,-8734.430116,995.924147
1136.417839,-3627.009116,-8512.368333,842.705048
1136.418151,-3627.009116,-8068.244768,612.876398
1136.418464,-3775.050304,-8290.306550,306.438199
1136.418776,-3627.009116,-9104.533087,1378.971896
1136.419088,-3701.029710,-8882.471304,919.314598
1136.419401,-3552.988522,-8956.491898,919.314598
1136.419713,-3627.009116,-8882.471304,1149.143247
1136.420026,-3701.029710,-8586.388927,689.485948
1136.420338,-3404.947333,-8882.471304,842.705048
1136.420651,-3404.947333,-8882.471304,995.924147
1136.420963,-3404.947333,-8956.491898,689.485948
1136.421276,-3923.091493,-8586.388927,1455.581446
1136.421588,-3775.050304,-8882.471304,1072.533697
1136.421901,-3552.988522,-9030.512492,919.314598
1136.422213,-3627.009116,-8956.491898,842.705048
1136.422526,-3775.050304,-8808.450710,919.314598
1136.422838,-3701.029710,-8364.327145,1072.533697
1136.423151,-3478.967927,-8956.491898,919.314598
1136.423463,-3478.967927,-8660.409521,1225.752797
1136.423776,-3404.947333,-8660.409521,1149.143247
1136.424088,-3701.029710,-8734.430116,842.705048
1136.424401,-3627.009116,-8956.491898,842.705048
1136.424713,-3849.070898,-8808.450710,995.924147
1136.425025,-3701.029710,-8956.491898,229.828649
1136.425338,-3034.844362,-8734.430116,995.924147
1136.425650,-3108.864956,-8438.347739,612.876398
1136.425963,-3108.864956,-9104.533087,612.876398
1136.426275,-3552.988522,-8882.471304,1378.971896
1136.426588,-3330.926739,-9178.553681,1532.190996
1136.426900,-3256.906145,-9178.553681,1455.581446
1136.427213,-3552.988522,-9030.512492,919.314598
1136.427525,-3404.947333,-8660.409521,612.876398
1136.427838,-3182.885551,-8438.347739,1072.533697
1136.428150,-2886.803174,-8512.368333,995.924147
1136.428463,-3478.967927,-8216.285956,1149.143247
1136.428775,-3997.112087,-8364.327145,1302.362347
1136.429088,-4293.194464,-8808.450710,1685.410096
1136.429400,-3849.070898,-8808.450710,1302.362347
1136.429713,-3552.988522,-9104.533087,919.314598
1136.430025,-3552.988522,-8956.491898,306.438199
1136.430338,-3701.029710,-8734.430116,1072.533697
1136.430650,-3997.112087,-8512.368333,1378.971896
1136.430962,-3034.844362,-8956.491898,1302.362347
1136.431275,-2590.720797,-9326.594869,766.095498
1136.431587,-3182.885551,-9178.553681,1378.971896
1136.431900,-3701.029710,-8808.450710,1762.019645
1136.432212,-3256.906145,-9178.553681,1991.848295
1136.432525,-3108.864956,-9400.615463,1762.019645
1136.432837,-2960.823768,-9622.677246,1378.971896
1136.433150,-3923.091493,-8438.347739,1072.533697
1136.433462,-3627.009116,-8586.388927,1532.190996
1136.433775,-3701.029710,-8734.430116,1455.581446
1136.434087,-3775.050304,-8586.388927,1072.533697
1136.434400,-3552.988522,-8438.347739,1302.362347
1136.434712,-4145.153275,-8586.388927,919.314598
1136.435025,-4293.194464,-8290.306550,1302.362347
1136.435337,-3256.906145,-8586.388927,1378.971896
1136.435650,-3108.864956,-8660.409521,919.314598
1136.435962,-3775.050304,-8808.450710,1915.238745
1136.436274,-4219.173869,-8438.347739,1991.848295
1136.436587,-3404.947333,-8586.388927,1072.533697
1136.436899,-2368.659014,-9474.636058,612.876398
1136.437212,-2146.597232,-9696.697840,689.485948
1136.437524,-2220.617826,-8808.450710,1302.362347
1136.437837,-2368.659014,-8216.285956,1532.190996
1136.438149,-2072.576638,-9770.718434,1991.848295
1136.438462,-2072.576638,-9696.697840,1915.238745
1136.438774,-1850.514855,-9770.718434,1149.143247
1136.439087,-1332.370696,-9400.615463,842.705048
1136.439399,-1406.391290,-9400.615463,1378.971896
1136.439712,-2220.617826,-9622.677246,2374.896044
1136.440024,-3108.864956,-8956.491898,2451.505594
1136.440337,-2886.803174,-9326.594869,1685.410096
1136.440649,-2886.803174,-9400.615463,689.485948
1136.440962,-3108.864956,-8956.491898,536.266849
1136.441274,-3108.864956,-8512.368333,383.047749
1136.441587,-3849.070898,-8586.388927,1072.533697
1136.441899,-4589.276840,-8734.430116,1608.800546
1136.442211,-4293.194464,-8512.368333,1072.533697
1136.442524,-2886.803174,-8808.450710,842.705048
1136.442836,-3330.926739,-9030.512492,842.705048
1136.443149,-4219.173869,-8216.285956,1455.581446
1136.443461,-3775.050304,-8734.430116,1302.362347
1136.443774,-3108.864956,-8882.471304,1072.533697
1136.444086,-2960.823768,-9474.636058,1072.533697
1136.444399,-3182.885551,-9030.512492,1149.143247
1136.444711,-2738.761985,-9474.636058,1072.533697
1136.445024,-4071.132681,-9030.512492,1378.971896
1136.445336,-4219.173869,-9178.553681,2298.286494
1136.445649,-3701.029710,-8808.450710,2374.896044
1136.445961,-3627.009116,-9104.533087,689.485948
1136.446274,-4293.194464,-8734.430116,842.705048
1136.446586,-3923.091493,-8142.265362,536.266849
1136.446899,-4071.132681,-7994.224174,383.047749
1136.447211,-4219.173869,-8586.388927,536.266849
1136.447524,-4219.173869,-8290.306550,919.314598
1136.447836,-3849.070898,-8512.368333,1378.971896
1136.448148,-3627.009116,-8956.491898,1532.190996
1136.448461,-3923.091493,-9104.533087,1378.971896
1136.448773,-3849.070898,-8882.471304,1225.752797
1136.449086,-3182.885551,-9104.533087,995.924147
1136.449398,-3330.926739,-9252.574275,1225.752797
1136.449711,-3552.988522,-8660.409521,306.438199
1136.450023,-3108.864956,-8734.430116,459.657299
1136.450336,-2738.761985,-8956.491898,689.485948
1136.450648,-3108.864956,-8734.430116,1149.143247
1136.450961,-3478.967927,-8808.450710,1378.971896
1136.451273,-3552.988522,-8956.491898,1302.362347
1136.451586,-3330.926739,-8956.491898,1072.533697
1136.451898,-3404.947333,-8586.388927,995.924147
1136.452211,-3923.091493,-8586.388927,1378.971896
1136.452523,-4071.132681,-8290.306550,1149.143247
1136.452836,-3108.864956,-8660.409521,842.705048
1136.453148,-3849.070898,-8882.471304,689.485948
1136.453460,-4071.132681,-8956.491898,612.876398
1136.453773,-3775.050304,-8956.491898,383.047749
1136.454085,-3108.864956,-9178.553681,229.828649
1136.454398,-2960.823768,-9030.512492,995.924147
1136.454710,-3256.906145,-9326.594869,1302.362347
1136.455023,-3256.906145,-9104.533087,1915.238745
1136.455335,-2812.782580,-9030.512492,1685.410096
1136.455648,-2886.803174,-8734.430116,1378.971896
1136.455960,-2812.782580,-8512.368333,842.705048
1136.456273,-2590.720797,-8808.450710,536.266849
1136.456585,-2960.823768,-8586.388927,612.876398
1136.456898,-3330.926739,-8364.327145,1455.581446
1136.457210,-3404.947333,-8956.491898,1072.533697
1136.457523,-3478.967927,-8734.430116,842.705048
1136.457835,-3997.112087,-8956.491898,919.314598
1136.458148,-3404.947333,-8956.491898,459.657299
1136.458460,-3182.885551,-9104.533087,689.485948
1136.458773,-3404.947333,-9178.553681,1072.533697
1136.459085,-3256.906145,-9400.615463,1302.362347
1136.459397,-3256.906145,-9252.574275,995.924147
1136.459710,-3404.947333,-8882.471304,1302.362347
1136.460022,-3552.988522,-9030.512492,919.314598
1136.460335,-3182.885551,-9252.574275,1302.362347
1136.460647,-3627.009116,-8882.471304,919.314598
1136.460960,-3849.070898,-8808.450710,1072.533697
1136.461272,-4071.132681,-8290.306550,1072.533697
1136.461585,-3923.091493,-8068.244768,1072.533697
1136.461897,-3775.050304,-8512.368333,689.485948
1136.462210,-4589.276840,-7846.182985,76.609550
1136.462522,-4811.338623,-8364.327145,306.438199
1136.462835,-4515.256246,-8364.327145,842.705048
1136.463147,-4737.318029,-8364.327145,689.485948
1136.463460,-4441.235652,-8734.430116,459.657299
1136.463772,-4293.194464,-8882.471304,459.657299
1136.464085,-4515.256246,-8882.471304,1072.533697
1136.464397,-4219.173869,-8882.471304,536.266849
1136.464710,-4293.194464,-8882.471304,1149.143247
1136.465022,-4219.173869,-8438.347739,1072.533697
1136.465335,-4219.173869,-8882.471304,842.705048
1136.465647,-3849.070898,-8512.368333,229.828649
1136.465960,-4219.173869,-8512.368333,536.266849
1136.466272,-4071.132681,-8512.368333,306.438199
1136.466585,-4219.173869,-7994.224174,689.485948
1136.466897,-4515.256246,-7846.182985,766.095498
1136.467210,-4219.173869,-8438.347739,1532.190996
1136.467522,-4071.132681,-8290.306550,842.705048
1136.467835,-4219.173869,-8364.327145,383.047749
1136.468147,-4071.132681,-8660.409521,383.047749
1136.468460,-4071.132681,-8808.450710,229.828649
1136.468772,-3923.091493,-8882.471304,383.047749
1136.469085,-3849.070898,-9030.512492,766.095498
1136.469397,-3701.029710,-8512.368333,612.876398
1136.469710,-3627.009116,-8882.471304,306.438199
1136.470022,-3108.864956,-9252.574275,612.876398
1136.470335,-3478.967927,-9326.594869,229.828649
1136.470648,-3404.947333,-9400.615463,383.047749
1136.470960,-3330.926739,-9104.533087,459.657299
1136.471273,-3404.947333,-9030.512492,459.657299
1136.471585,-3108.864956,-8956.491898,612.876398
1136.471898,-3330.926739,-8660.409521,383.047749
1136.472210,-3775.050304,-9030.512492,0.000000
1136.472523,-3627.009116,-8956.491898,0.000000
1136.472835,-3701.029710,-8660.409521,0.000000
1136.473148,-3627.009116,-8956.491898,383.047749
1136.473460,-3478.967927,-9178.553681,459.657299
1136.473773,-3404.947333,-9030.512492,383.047749
1136.474085,-3404.947333,-9252.574275,229.828649
1136.474398,-3256.906145,-8808.450710,1225.752797
1136.474710,-3552.988522,-8660.409521,995.924147
1136.475023,-3701.029710,-8734.430116,766.095498
1136.475335,-3849.070898,-8882.471304,612.876398
1136.475648,-3849.070898,-8734.430116,612.876398
1136.475960,-3997.112087,-8438.347739,229.828649
1136.476273,-4071.132681,-8586.388927,612.876398
1136.476585,-4737.318029,-8068.244768,1455.581446
1136.476898,-4515.256246,-8142.265362,766.095498
1136.477210,-3997.112087,-8216.285956,459.657299
1136.477523,-4219.173869,-8438.347739,536.266849
1136.477835,-4219.173869,-8882.471304,229.828649
1136.478148,-4219.173869,-8734.430116,229.828649
1136.478460,-4145.153275,-8586.388927,612.876398
1136.478773,-3923.091493,-9252.574275,1378.971896
1136.479085,-3701.029710,-8808.450710,919.314598
1136.479398,-3849.070898,-8512.368333,1149.143247
1136.479710,-3849.070898,-8660.409521,536.266849
1136.480023,-3775.050304,-8512.368333,766.095498
1136.480335,-3701.029710,-8882.471304,919.314598
1136.480648,-3849.070898,-8586.388927,766.095498
1136.480960,-3923.091493,-8364.327145,766.095498
1136.481273,-3997.112087,-7994.224174,919.314598
1136.481586,-4367.215058,-7698.141797,1072.533697
1136.481898,-3923.091493,-8438.347739,459.657299
1136.482211,-4441.235652,-8290.306550,995.924147
1136.482523,-4145.153275,-8512.368333,536.266849
1136.482836,-4219.173869,-8882.471304,689.485948
1136.483148,-4663.297435,-8438.347739,689.485948
1136.483461,-3701.029710,-8808.450710,1072.533697
1136.483773,-3775.050304,-8882.471304,459.657299
1136.484086,-3923.091493,-8956.491898,842.705048
1136.484398,-4441.235652,-8734.430116,1225.752797
1136.484711,-4293.194464,-8586.388927,1225.752797
1136.485023,-3849.070898,-8808.450710,689.485948
1136.485336,-3923.091493,-8660.409521,383.047749
1136.485648,-3701.029710,-8512.368333,536.266849
1136.485961,-4219.173869,-8586.388927,1149.143247
1136.486273,-4515.256246,-8290.306550,1225.752797
1136.486586,-3627.009116,-8882.471304,842.705048
1136.486898,-3849.070898,-8438.347739,0.000000
1136.487211,-3701.029710,-8660.409521,229.828649
1136.487523,-4293.194464,-8882.471304,459.657299
1136.487836,-4071.132681,-8882.471304,536.266849
1136.488148,-4071.132681,-9178.553681,536.266849
1136.488461,-3997.112087,-8956.491898,689.485948
1136.488773,-3404.947333,-8364.327145,536.266849
1136.489086,-3108.864956,-9104.533087,995.924147
1136.489398,-3478.967927,-9696.697840,306.438199
1136.489711,-3478.967927,-8956.491898,459.657299
1136.490023,-3552.988522,-9030.512492,1225.752797
1136.490336,-3701.029710,-8956.491898,1072.533697
1136.490648,-3627.009116,-9178.553681,689.485948
1136.490961,-3478.967927,-8290.306550,0.000000
1136.491273,-2886.803174,-8512.368333,0.000000
1136.491586,-3404.947333,-8660.409521,612.876398
1136.491899,-3775.050304,-8512.368333,689.485948
1136.492211,-3552.988522,-8364.327145,383.047749
1136.492524,-3552.988522,-8734.430116,459.657299
1136.492836,-4145.153275,-8734.430116,919.314598
1136.493149,-4367.215058,-9030.512492,1149.143247
1136.493461,-3849.070898,-8882.471304,459.657299
1136.493774,-3627.009116,-9326.594869,229.828649
1136.494086,-4367.215058,-9104.533087,766.095498
1136.494399,-4145.153275,-8586.388927,612.876398
1136.494711,-3552.988522,-8882.471304,306.438199
1136.495024,-3330.926739,-8882.471304,766.095498
1136.495336,-3256.906145,-9030.512492,1225.752797
1136.495649,-3627.009116,-9030.512492,1378.971896
1136.495961,-4219.173869,-8660.409521,2451.505594
1136.496274,-3627.009116,-9030.512492,536.266849
1136.496586,-3478.967927,-8142.265362,766.095498
1136.496899,-3775.050304,-8216.285956,766.095498
1136.497211,-4293.194464,-8216.285956,919.314598
1136.497524,-3849.070898,-8068.244768,459.657299
1136.497836,-3701.029710,-8660.409521,536.266849
1136.498149,-4145.153275,-8808.450710,1302.362347
1136.498461,-3923.091493,-9030.512492,1072.533697
1136.498774,-3849.070898,-8660.409521,842.705048
1136.499086,-3478.967927,-8808.450710,1378.971896
1136.499399,-3256.906145,-8956.491898,1225.752797
1136.499711,-3182.885551,-9030.512492,1225.752797
1136.500024,-3108.864956,-8956.491898,995.924147
1136.500336,-3182.885551,-8882.471304,1149.143247
1136.500649,-2886.803174,-8882.471304,1838.629195
1136.500961,-3627.009116,-9030.512492,1608.800546
1136.501274,-3701.029710,-8364.327145,1225.752797
1136.501586,-3478.967927,-8956.491898,612.876398
1136.501899,-4515.256246,-8364.327145,689.485948
1136.502211,-4367.215058,-8364.327145,766.095498
1136.502524,-4071.132681,-8512.368333,153.219100
1136.502837,-3701.029710,-8364.327145,0.000000
1136.503149,-3923.091493,-7698.141797,76.609550
1136.503462,-3923.091493,-8290.306550,919.314598
1136.503774,-3404.947333,-8586.388927,995.924147
1136.504087,-3330.926739,-9178.553681,689.485948
1136.504399,-3478.967927,-9252.574275,842.705048
1136.504712,-3256.906145,-9326.594869,612.876398
1136.505024,-3701.029710,-9474.636058,842.705048
1136.505337,-4071.132681,-8808.450710,919.314598
1136.505649,-3330.926739,-9030.512492,842.705048
1136.505962,-3404.947333,-8364.327145,383.047749
1136.506274,-4515.256246,-8660.409521,306.438199
1136.506587,-4441.235652,-8660.409521,-229.828649
1136.506899,-3775.050304,-8438.347739,-459.657299
1136.507212,-4293.194464,-8734.430116,0.000000
1136.507524,-4663.297435,-8364.327145,383.047749
1136.507837,-3775.050304,-7920.203579,1149.143247
1136.508149,-3627.009116,-8882.471304,383.047749
1136.508462,-4219.173869,-8586.388927,76.609550
1136.508774,-3997.112087,-8438.347739,229.828649
1136.509087,-3849.070898,-8808.450710,153.219100
1136.509399,-3923.091493,-8956.491898,153.219100
1136.509712,-3701.029710,-9252.574275,153.219100
1136.510024,-3627.009116,-9252.574275,76.609550
1136.510337,-3923.091493,-9030.512492,229.828649
1136.510649,-3923.091493,-9252.574275,229.828649
1136.510962,-3997.112087,-8660.409521,-383.047749
1136.511274,-3997.112087,-8734.430116,0.000000
1136.511587,-4589.276840,-8882.471304,306.438199
1136.511899,-4959.379811,-7772.162391,459.657299
1136.512212,-4589.276840,-8364.327145,536.266849
1136.512524,-4737.318029,-8364.327145,153.219100
1136.512837,-4589.276840,-8364.327145,229.828649
1136.513150,-5033.400406,-8216.285956,0.000000
1136.513462,-5551.544565,-7920.203579,-229.828649
1136.513775,-5551.544565,-8216.285956,0.000000
1136.514087,-5773.606348,-8142.265362,0.000000
1136.514400,-5403.503377,-7846.182985,-229.828649
1136.514712,-5329.482782,-8216.285956,-229.828649
1136.515025,-4737.318029,-8068.244768,459.657299
1136.515337,-4515.256246,-8068.244768,689.485948
1136.515650,-4441.235652,-8364.327145,0.000000
1136.515962,-3404.947333,-8216.285956,459.657299
1136.516275,-3849.070898,-8660.409521,383.047749
1136.516587,-3330.926739,-9030.512492,383.047749
1136.516900,-3182.885551,-8808.450710,842.705048
1136.517212,-3404.947333,-9178.553681,842.705048
1136.517525,-3478.967927,-9104.533087,1225.752797
1136.517837,-3627.009116,-8586.388927,459.657299
1136.518150,-3478.967927,-9400.615463,229.828649
1136.518462,-3182.885551,-9104.533087,612.876398
1136.518775,-3404.947333,-8956.491898,306.438199
1136.519087,-3552.988522,-8956.491898,689.485948
1136.519400,-3478.967927,-8808.450710,919.314598
1136.519712,-3330.926739,-8882.471304,919.314598
1136.520025,-3701.029710,-8586.388927,689.485948
1136.520337,-2590.720797,-8882.471304,612.876398
1136.520650,-3034.844362,-8660.409521,1149.143247
1136.520962,-3256.906145,-9030.512492,1455.581446
1136.521275,-3701.029710,-8660.409521,1149.143247
1136.521587,-3404.947333,-9030.512492,1225.752797
1136.521900,-3552.988522,-8882.471304,919.314598
1136.522212,-3256.906145,-9030.512492,612.876398
1136.522525,-3034.844362,-8956.491898,1149.143247
1136.522837,-3256.906145,-8956.491898,995.924147
1136.523150,-3552.988522,-9104.533087,1225.752797
1136.523462,-3627.009116,-9178.553681,1378.971896
1136.523775,-3701.029710,-8956.491898,1225.752797
1136.524088,-3701.029710,-8808.450710,1378.971896
1136.524400,-3775.050304,-8660.409521,919.314598
1136.524713,-3775.050304,-8734.430116,1072.533697
1136.525025,-3627.009116,-8512.368333,1149.143247
1136.525338,-3923.091493,-8660.409521,1455.581446
1136.525650,-3701.029710,-8660.409521,1302.362347
1136.525963,-3552.988522,-8660.409521,612.876398
1136.526275,-3701.029710,-8734.430116,919.314598
1136.526588,-3923.091493,-8660.409521,919.314598
1136.526900,-3701.029710,-8660.409521,1302.362347
1136.527213,-4145.153275,-8660.409521,919.314598
1136.527525,-4071.132681,-8512.368333,1149.143247
1136.527838,-3552.988522,-8364.327145,1225.752797
1136.528150,-3627.009116,-8512.368333,612.876398
1136.528463,-3997.112087,-8586.388927,842.705048
1136.528775,-3849.070898,-8586.388927,919.314598
1136.529088,-3923.091493,-8586.388927,995.924147
1136.529400,-4219.173869,-8586.388927,919.314598
1136.529713,-3701.029710,-8660.409521,1455.581446
1136.530025,-4219.173869,-7994.224174,1149.143247
1136.530338,-4293.194464,-8438.347739,1072.533697
1136.530650,-4219.173869,-8956.491898,842.705048
1136.530963,-4293.194464,-8734.430116,689.485948
1136.531275,-4071.132681,-8734.430116,842.705048
1136.531588,-3849.070898,-8734.430116,766.095498
1136.531900,-3849.070898,-8808.450710,766.095498
1136.532213,-3627.009116,-9178.553681,919.314598
1136.532525,-3627.009116,-9178.553681,766.095498
1136.532838,-4293.194464,-8586.388927,919.314598
1136.533150,-4293.194464,-8660.409521,612.876398
1136.533463,-4293.194464,-8734.430116,842.705048
1136.533775,-4293.194464,-8512.368333,383.047749
1136.534088,-4071.132681,-8512.368333,153.219100
1136.534401,-4293.194464,-8438.347739,306.438199
1136.534713,-4145.153275,-8438.347739,229.828649
1136.535026,-4145.153275,-8438.347739,689.485948
1136.535338,-4219.173869,-8290.306550,0.000000
1136.535651,-4145.153275,-8660.409521,76.609550
1136.535963,-3997.112087,-8808.450710,0.000000
1136.536276,-3923.091493,-8882.471304,76.609550
1136.536588,-3552.988522,-8956.491898,229.828649
1136.536901,-3478.967927,-8956.491898,306.438199
1136.537213,-3701.029710,-9104.533087,229.828649
1136.537526,-3256.906145,-9030.512492,459.657299
1136.537838,-2886.803174,-9252.574275,689.485948
1136.538151,-3775.050304,-9104.533087,153.219100
1136.538463,-3552.988522,-9178.553681,0.000000
1136.538776,-3849.070898,-8734.430116,0.000000
1136.539088,-3775.050304,-8882.471304,76.609550
1136.539401,-3923.091493,-8512.368333,0.000000
1136.539713,-4293.194464,-7920.203579,153.219100
1136.540026,-3923.091493,-8438.347739,153.219100
1136.540338,-3849.070898,-8808.450710,0.000000
1136.540651,-4441.235652,-8660.409521,0.000000
1136.540963,-4293.194464,-8956.491898,153.219100
1136.541276,-4219.173869,-8734.430116,76.609550
1136.541588,-4071.132681,-9252.574275,0.000000
1136.541901,-3627.009116,-9104.533087,0.000000
1136.542213,-3552.988522,-8808.450710,153.219100
1136.542526,-3330.926739,-9252.574275,459.657299
1136.542838,-3404.947333,-9030.512492,1149.143247
1136.543151,-3701.029710,-8808.450710,689.485948
1136.543463,-3404.947333,-8882.471304,689.485948
1136.543776,-3330.926739,-8882.471304,842.705048
1136.544088,-3701.029710,-8808.450710,995.924147
1136.544401,-3849.070898,-8660.409521,1072.533697
1136.544713,-4293.194464,-8512.368333,842.705048
1136.545026,-4367.215058,-8660.409521,229.828649
1136.545339,-4219.173869,-8216.285956,0.000000
1136.545651,-3997.112087,-8660.409521,0.000000
1136.545964,-3849.070898,-8586.388927,306.438199
1136.546276,-3552.988522,-8882.471304,919.314598
1136.546589,-3182.885551,-9030.512492,1072.533697
1136.546901,-2664.741391,-9252.574275,1149.143247
1136.547214,-2442.679609,-9770.718434,2298.286494
1136.547526,-2294.638420,-9548.656652,2451.505594
1136.547839,-1998.556043,-9844.739029,1838.629195
1136.548151,-2072.576638,-9696.697840,1915.238745
1136.548464,-2146.597232,-9326.594869,1762.019645
1136.548776,-2146.597232,-9104.533087,1838.629195
1136.549089,-2146.597232,-9178.553681,1915.238745
1136.549401,-2368.659014,-8882.471304,1838.629195
1136.549714,-2368.659014,-8586.388927,2145.067394
1136.550026,-3034.844362,-8364.327145,2374.896044
1136.550339,-3552.988522,-8660.409521,2374.896044
1136.550651,-3552.988522,-8808.450710,2145.067394
1136.550964,-3775.050304,-8290.306550,1685.410096
1136.551276,-3849.070898,-8290.306550,1762.019645
1136.551589,-3552.988522,-8660.409521,2221.676944
1136.551901,-3627.009116,-8068.244768,2068.457845
1136.552214,-3775.050304,-8956.491898,1685.410096
1136.552526,-3478.967927,-8734.430116,2145.067394
1136.552839,-3701.029710,-8808.450710,2451.505594
1136.553151,-3478.967927,-9326.594869,2451.505594
1136.553464,-3701.029710,-9030.512492,2374.896044
1136.553776,-3478.967927,-8808.450710,2451.505594
1136.554089,-3478.967927,-8438.347739,1838.629195
1136.554401,-3775.050304,-7994.224174,1762.019645
1136.554714,-3330.926739,-7994.224174,1685.410096
1136.555026,-3404.947333,-8364.327145,1455.581446
1136.555339,-3478.967927,-8364.327145,1378.971896
1136.555651,-3701.029710,-8512.368333,1608.800546
1136.555964,-3627.009116,-8734.430116,1915.238745
1136.556277,-3701.029710,-9030.512492,1838.629195
1136.556589,-3701.029710,-9030.512492,1762.019645
1136.556902,-3701.029710,-8660.409521,1302.362347
1136.557214,-3627.009116,-8216.285956,1149.143247
1136.557527,-3256.906145,-8808.450710,995.924147
1136.557839,-3182.885551,-9030.512492,612.876398
1136.558152,-3182.885551,-9326.594869,995.924147
1136.558464,-3108.864956,-9178.553681,1072.533697
1136.558777,-2738.761985,-9252.574275,1915.238745
1136.559089,-3108.864956,-8956.491898,1302.362347
1136.559402,-2664.741391,-8882.471304,1378.971896
1136.559714,-2960.823768,-8660.409521,1225.752797
1136.560027,-3034.844362,-8586.388927,1149.143247
1136.560339,-3404.947333,-8512.368333,612.876398
1136.560652,-3404.947333,-8438.347739,459.657299
1136.560964,-3627.009116,-8808.450710,76.609550
1136.561277,-3552.988522,-8512.368333,306.438199
1136.561589,-3775.050304,-8882.471304,459.657299
1136.561902,-3182.885551,-9252.574275,842.705048
1136.562214,-3404.947333,-9326.594869,689.485948
1136.562527,-3404.947333,-9178.553681,612.876398
1136.562839,-3034.844362,-9252.574275,383.047749
1136.563152,-3034.844362,-9252.574275,612.876398
1136.563464,-2812.782580,-9178.553681,306.438199
1136.563777,-2368.659014,-8956.491898,229.828649
1136.564089,-2738.761985,-9030.512492,536.266849
1136.564402,-2664.741391,-9030.512492,612.876398
1136.564714,-2516.700203,-9252.574275,-153.219100
1136.565027,-3108.864956,-9030.512492,306.438199
1136.565339,-3330.926739,-8956.491898,459.657299
1136.565652,-3404.947333,-8734.430116,536.266849
1136.565964,-3627.009116,-8734.430116,459.657299
1136.566277,-3627.009116,-8808.450710,76.609550
1136.566592,-3701.029710,-8512.368333,0.000000
1136.566905,-3330.926739,-8956.491898,536.266849
1136.567217,-3330.926739,-9030.512492,459.657299
1136.567530,-3627.009116,-9178.553681,612.876398
1136.567843,-3404.947333,-9326.594869,689.485948
1136.568155,-3330.926739,-9400.615463,1072.533697
1136.568468,-3256.906145,-9252.574275,995.924147
1136.568780,-2886.803174,-9030.512492,689.485948
1136.569093,-2960.823768,-8956.491898,1225.752797
1136.569406,-3256.906145,-8956.491898,995.924147
1136.569718,-3256.906145,-8808.450710,919.314598
1136.570031,-3330.926739,-8734.430116,1072.533697
1136.570343,-3552.988522,-8808.450710,1072.533697
1136.570656,-3775.050304,-8808.450710,1532.190996
1136.570969,-3923.091493,-8956.491898,1685.410096
1136.571281,-3627.009116,-8660.409521,1378.971896
1136.571594,-3627.009116,-8586.388927,1302.362347
1136.571907,-3849.070898,-8808.450710,1149.143247
1136.572219,-3997.112087,-8438.347739,1302.362347
1136.572532,-3627.009116,-8808.450710,1149.143247
1136.572844,-3627.009116,-8660.409521,1302.362347
1136.573157,-3404.947333,-8956.491898,1378.971896
1136.573470,-3108.864956,-8808.450710,1915.238745
1136.573782,-3108.864956,-9104.533087,2145.067394
1136.574095,-3108.864956,-8660.409521,2451.505594
1136.574407,-3330.926739,-8882.471304,1838.629195
1136.574720,-3404.947333,-8734.430116,2068.457845
1136.575033,-3404.947333,-8956.491898,1762.019645
1136.575345,-3478.967927,-8586.388927,1762.019645
1136.575658,-3478.967927,-8586.388927,1455.581446
1136.575971,-3627.009116,-8438.347739,1685.410096
1136.576283,-3256.906145,-8290.306550,1685.410096
1136.576596,-2960.823768,-8956.491898,1838.629195
1136.576908,-3701.029710,-8882.471304,1532.190996
1136.577221,-3330.926739,-8882.471304,1762.019645
1136.577534,-3256.906145,-9030.512492,1685.410096
1136.577846,-3256.906145,-8734.430116,1455.581446
1136.578159,-2960.823768,-8882.471304,1685.410096
1136.578471,-2960.823768,-8438.347739,1608.800546
1136.578784,-2664.741391,-8438.347739,1532.190996
1136.579097,-2516.700203,-8956.491898,1838.629195
1136.579409,-2664.741391,-8882.471304,1685.410096
1136.579722,-2738.761985,-8808.450710,1915.238745
1136.580035,-2886.803174,-9104.533087,1762.019645
1136.580347,-3330.926739,-8512.368333,1532.190996
1136.580660,-3404.947333,-8808.450710,1225.752797
1136.580972,-3330.926739,-8734.430116,1302.362347
1136.581285,-2664.741391,-8734.430116,995.924147
1136.581598,-3552.988522,-9030.512492,919.314598
1136.581910,-3775.050304,-8808.450710,1378.971896
1136.582223,-3034.844362,-8882.471304,1149.143247
1136.582535,-3478.967927,-9326.594869,919.314598
1136.582848,-3701.029710,-8882.471304,1608.800546
1136.583161,-3108.864956,-8660.409521,1302.362347
1136.583473,-2886.803174,-9104.533087,612.876398
1136.583786,-2960.823768,-9252.574275,536.266849
1136.584099,-3552.988522,-8734.430116,919.314598
1136.584411,-3330.926739,-8882.471304,1072.533697
1136.584724,-3330.926739,-8956.491898,766.095498
1136.585036,-3182.885551,-8956.491898,459.657299
1136.585349,-2960.823768,-8808.450710,536.266849
1136.585662,-3256.906145,-8882.471304,612.876398
1136.585974,-3849.070898,-8512.368333,1915.238745
1136.586287,-3997.112087,-9104.533087,1838.629195
1136.586600,-3701.029710,-8882.471304,383.047749
1136.586912,-3627.009116,-8882.471304,0.000000
1136.587225,-3701.029710,-8808.450710,0.000000
1136.587537,-3849.070898,-8734.430116,536.266849
1136.587850,-3627.009116,-8808.450710,919.314598
1136.588163,-3701.029710,-9252.574275,1302.362347
1136.588475,-3404.947333,-8808.450710,995.924147
1136.588788,-3256.906145,-9030.512492,842.705048
1136.589100,-3552.988522,-9030.512492,842.705048
1136.589413,-3182.885551,-9104.533087,306.438199
1136.589726,-3182.885551,-8660.409521,383.047749
1136.590038,-3627.009116,-8512.368333,919.314598
1136.590351,-3627.009116,-8586.388927,1072.533697
1136.590664,-3478.967927,-8438.347739,1149.143247
1136.590976,-2886.803174,-9030.512492,1149.143247
1136.591289,-3701.029710,-9030.512492,766.095498
1136.591601,-3849.070898,-9104.533087,1225.752797
1136.591914,-3849.070898,-8956.491898,1072.533697
1136.592227,-3330.926739,-9030.512492,536.266849
1136.592539,-3330.926739,-8956.491898,306.438199
1136.592852,-4145.153275,-8438.347739,689.485948
1136.593164,-3552.988522,-8512.368333,1149.143247
1136.593477,-3256.906145,-8660.409521,1378.971896
1136.593790,-3478.967927,-8882.471304,919.314598
1136.594102,-3849.070898,-8808.450710,1685.410096
1136.594415,-3627.009116,-8808.450710,1072.533697
1136.594728,-3404.947333,-8882.471304,995.924147
1136.595040,-2812.782580,-9178.553681,919.314598
1136.595353,-3330.926739,-8364.327145,1072.533697
1136.595665,-3701.029710,-8512.368333,1302.362347
1136.595978,-4071.132681,-8882.471304,1072.533697
1136.596291,-3923.091493,-8956.491898,1149.143247
1136.596603,-3404.947333,-8956.491898,1149.143247
1136.596916,-3627.009116,-9030.512492,1072.533697
1136.597228,-3627.009116,-8586.388927,995.924147
1136.597541,-2960.823768,-8956.491898,1225.752797
1136.597854,-3108.864956,-9030.512492,1225.752797
1136.598166,-3552.988522,-8734.430116,1532.190996
1136.598479,-3849.070898,-8956.491898,919.314598
1136.598792,-3849.070898,-8808.450710,919.314598
1136.599104,-3552.988522,-8586.388927,536.266849
1136.599417,-3034.844362,-8956.491898,536.266849
1136.599729,-3108.864956,-8882.471304,689.485948
1136.600042,-3923.091493,-8734.430116,1762.019645
1136.600355,-3404.947333,-8512.368333,1455.581446
1136.600667,-2738.761985,-9104.533087,1225.752797
1136.600980,-2664.741391,-9104.533087,919.314598
1136.601292,-3330.926739,-8734.430116,1378.971896
1136.601605,-3701.029710,-8586.388927,1762.019645
1136.601918,-3478.967927,-9252.574275,1378.971896
1136.602230,-3552.988522,-8734.430116,842.705048
1136.602543,-3627.009116,-8956.491898,689.485948
1136.602856,-3627.009116,-8512.368333,1072.533697
1136.603168,-3775.050304,-8882.471304,995.924147
1136.603481,-4441.235652,-8660.409521,459.657299
1136.603793,-3849.070898,-8660.409521,919.314598
1136.604106,-3330.926739,-8808.450710,1072.533697
1136.604419,-3923.091493,-8808.450710,689.485948
1136.604731,-3552.988522,-8734.430116,1685.410096
1136.605044,-2516.700203,-9104.533087,1302.362347
1136.605356,-2960.823768,-8956.491898,1149.143247
1136.605669,-3478.967927,-9252.574275,1991.848295
1136.605982,-3552.988522,-8586.388927,1991.848295
1136.606294,-2812.782580,-9178.553681,1455.581446
1136.606607,-3404.947333,-9474.636058,1225.752797
1136.606920,-3775.050304,-8882.471304,995.924147
1136.607232,-3627.009116,-9030.512492,766.095498
1136.607545,-3627.009116,-8808.450710,995.924147
1136.607857,-3478.967927,-8438.347739,842.705048
1136.608170,-3701.029710,-8586.388927,1532.190996
1136.608483,-3775.050304,-8660.409521,1149.143247
1136.608795,-3701.029710,-8586.388927,1072.533697
1136.609108,-3256.906145,-9030.512492,1225.752797
1136.609421,-3108.864956,-8512.368333,1532.190996
1136.609733,-3182.885551,-9030.512492,1838.629195
1136.610046,-2886.803174,-9252.574275,2451.505594
1136.610358,-2368.659014,-8660.409521,1762.019645
1136.610671,-2442.679609,-9400.615463,2145.067394
1136.610984,-2812.782580,-9104.533087,1838.629195
1136.611296,-2664.741391,-9252.574275,1608.800546
1136.611609,-2812.782580,-9326.594869,1455.581446
1136.611921,-2664.741391,-9252.574275,1608.800546
1136.612234,-2368.659014,-9104.533087,1608.800546
1136.612547,-2886.803174,-8956.491898,2145.067394
1136.612859,-2146.597232,-9030.512492,1225.752797
1136.613172,-2442.679609,-8882.471304,1532.190996
1136.613485,-2516.700203,-8808.450710,1838.629195
1136.613797,-2738.761985,-8956.491898,2068.457845
1136.614110,-2664.741391,-8808.450710,1915.238745
1136.614422,-2516.700203,-8956.491898,1915.238745
1136.614735,-2886.803174,-9178.553681,1762.019645
1136.615048,-3034.844362,-8734.430116,1685.410096
1136.615360,-2812.782580,-9252.574275,1762.019645
1136.615673,-3256.906145,-8660.409521,842.705048
1136.615985,-3256.906145,-8956.491898,1225.752797
1136.616298,-3256.906145,-9030.512492,1302.362347
1136.616611,-3108.864956,-8808.450710,1378.971896
1136.616923,-3478.967927,-8660.409521,1532.190996
1136.617236,-3552.988522,-8660.409521,1608.800546
1136.617549,-3849.070898,-8660.409521,536.266849
1136.617861,-3701.029710,-8438.347739,1149.143247
1136.618174,-3849.070898,-8512.368333,919.314598
1136.618486,-4145.153275,-8438.347739,919.314598
1136.618799,-4071.132681,-8882.471304,842.705048
1136.619112,-4145.153275,-8956.491898,842.705048
1136.619424,-4145.153275,-8882.471304,766.095498
1136.619737,-3627.009116,-9030.512492,229.828649
1136.620049,-3330.926739,-8882.471304,919.314598
1136.620362,-3404.947333,-9104.533087,919.314598
1136.620675,-3256.906145,-9104.533087,1378.971896
1136.620987,-3404.947333,-9326.594869,1302.362347
1136.621300,-3552.988522,-9252.574275,1149.143247
1136.621613,-3330.926739,-9030.512492,919.314598
1136.621925,-3182.885551,-9030.512492,1149.143247
1136.622238,-3256.906145,-8290.306550,1072.533697
1136.622550,-3478.967927,-8438.347739,536.266849
1136.622863,-3256.906145,-8882.471304,842.705048
1136.623176,-3404.947333,-8956.491898,842.705048
1136.623488,-3849.070898,-9030.512492,612.876398
1136.623801,-3775.050304,-8956.491898,919.314598
1136.624113,-3701.029710,-8956.491898,459.657299
1136.624426,-3701.029710,-8586.388927,536.266849
1136.624739,-3775.050304,-8734.430116,459.657299
1136.625051,-3478.967927,-8586.388927,1532.190996
1136.625364,-3330.926739,-9252.574275,1302.362347
1136.625677,-3478.967927,-8956.491898,995.924147
1136.625989,-3256.906145,-9030.512492,1149.143247
1136.626302,-3478.967927,-8956.491898,1072.533697
1136.626614,-3404.947333,-9178.553681,919.314598
1136.626927,-3108.864956,-8956.491898,919.314598
1136.627240,-2886.803174,-8882.471304,689.485948
1136.627552,-3256.906145,-8956.491898,842.705048
1136.627865,-3256.906145,-8586.388927,766.095498
1136.628178,-2960.823768,-8882.471304,995.924147
1136.628490,-3108.864956,-8956.491898,1072.533697
1136.628803,-3404.947333,-9104.533087,1225.752797
1136.629115,-3182.885551,-9104.533087,1149.143247
1136.629428,-2812.782580,-9030.512492,1608.800546
1136.629741,-2738.761985,-8882.471304,1225.752797
1136.630053,-3034.844362,-8660.409521,1225.752797
1136.630366,-3182.885551,-8734.430116,1225.752797
1136.630678,-3182.885551,-8956.491898,1378.971896
1136.630991,-2812.782580,-9178.553681,919.314598
1136.631304,-2886.803174,-9030.512492,1149.143247
1136.631616,-3034.844362,-9030.512492,1225.752797
1136.631929,-3182.885551,-8956.491898,1685.410096
1136.632242,-3034.844362,-8956.491898,1838.629195
1136.632554,-2590.720797,-9030.512492,1762.019645
1136.632867,-3256.906145,-8882.471304,1685.410096
1136.633179,-3182.885551,-8808.450710,1225.752797
1136.633492,-3034.844362,-8882.471304,1149.143247
1136.633805,-3108.864956,-9104.533087,1378.971896
1136.634117,-3256.906145,-8956.491898,1532.190996
1136.634430,-3701.029710,-8734.430116,1685.410096
1136.634742,-3775.050304,-8364.327145,1685.410096
1136.635055,-3701.029710,-8364.327145,919.314598
1136.635368,-3923.091493,-8660.409521,1149.143247
1136.635680,-4293.194464,-8512.368333,919.314598
1136.635993,-4219.173869,-8438.347739,1225.752797
1136.636306,-4293.194464,-8364.327145,1455.581446
1136.636618,-3997.112087,-8512.368333,1608.800546
1136.636931,-4145.153275,-8216.285956,1378.971896
1136.637243,-4219.173869,-8734.430116,1072.533697
1136.637556,-3923.091493,-8586.388927,1455.581446
1136.637869,-3997.112087,-8660.409521,1225.752797
1136.638181,-3997.112087,-8512.368333,1302.362347
1136.638494,-3997.112087,-8734.430116,1302.362347
1136.638806,-3849.070898,-8660.409521,689.485948
1136.639119,-3478.967927,-8956.491898,919.314598
1136.639432,-3552.988522,-8586.388927,1072.533697
1136.639744,-3478.967927,-8512.368333,1072.533697
1136.640057,-3034.844362,-8882.471304,1149.143247
1136.640370,-3256.906145,-9178.553681,1302.362347
1136.640682,-2960.823768,-9030.512492,1302.362347
1136.640995,-2886.803174,-9178.553681,1225.752797
1136.641307,-2886.803174,-8734.430116,1149.143247
1136.641620,-2960.823768,-9030.512492,1838.629195
1136.641933,-2812.782580,-9252.574275,1149.143247
1136.642245,-3256.906145,-8660.409521,1302.362347
1136.642558,-3330.926739,-9104.533087,995.924147
1136.642870,-3330.926739,-9104.533087,1072.533697
1136.643183,-3478.967927,-9104.533087,766.095498
1136.643496,-3552.988522,-9252.574275,612.876398
1136.643808,-4071.132681,-9030.512492,689.485948
1136.644121,-3923.091493,-8882.471304,536.266849
1136.644434,-3997.112087,-8512.368333,612.876398
1136.644746,-3923.091493,-8734.430116,459.657299
1136.645059,-4071.132681,-8734.430116,153.219100
1136.645371,-3997.112087,-8438.347739,306.438199
1136.645684,-3997.112087,-8586.388927,229.828649
1136.645997,-4071.132681,-8586.388927,383.047749
1136.646309,-4219.173869,-9030.512492,612.876398
1136.646622,-4367.215058,-9030.512492,919.314598
1136.646935,-4071.132681,-8808.450710,612.876398
1136.647247,-3627.009116,-8808.450710,766.095498
1136.647560,-3923.091493,-9030.512492,536.266849
1136.647872,-3627.009116,-8734.430116,76.609550
1136.648185,-3330.926739,-9030.512492,76.609550
1136.648498,-3552.988522,-8660.409521,229.828649
1136.648810,-3552.988522,-8512.368333,459.657299
1136.649123,-3330.926739,-8734.430116,612.876398
1136.649435,-3034.844362,-9030.512492,1302.362347
1136.649748,-3849.070898,-8734.430116,842.705048
1136.650061,-4367.215058,-8734.430116,842.705048
1136.650373,-4515.256246,-8290.306550,229.828649
1136.650686,-4589.276840,-8364.327145,-229.828649
1136.650999,-4663.297435,-8216.285956,-536.266849
1136.651311,-4367.215058,-8142.265362,0.000000
1136.651624,-4737.318029,-7920.203579,-612.876398
1136.651936,-4515.256246,-8142.265362,229.828649
1136.652249,-4737.318029,-8364.327145,689.485948
1136.652562,-4663.297435,-8364.327145,306.438199
1136.652874,-4367.215058,-8586.388927,383.047749
1136.653187,-4219.173869,-8586.388927,229.828649
1136.653499,-3997.112087,-8660.409521,459.657299
1136.653812,-3775.050304,-8808.450710,842.705048
1136.654125,-4145.153275,-8586.388927,383.047749
1136.654437,-4367.215058,-8660.409521,0.000000
1136.654750,-3997.112087,-8808.450710,-612.876398
1136.655063,-4367.215058,-8808.450710,-153.219100
1136.655375,-4515.256246,-8808.450710,0.000000
1136.655688,-4293.194464,-8660.409521,459.657299
1136.656000,-4293.194464,-8808.450710,229.828649
1136.656313,-4441.235652,-8734.430116,536.266849
1136.656626,-4219.173869,-8586.388927,306.438199
1136.656938,-3849.070898,-8660.409521,153.219100
1136.657251,-3552.988522,-8808.450710,0.000000
1136.657563,-3478.967927,-8808.450710,153.219100
1136.657876,-3478.967927,-9030.512492,612.876398
1136.658189,-3330.926739,-9030.512492,919.314598
1136.658501,-3108.864956,-9178.553681,842.705048
1136.658814,-3108.864956,-9474.636058,995.924147
1136.659127,-2960.823768,-9252.574275,1072.533697
1136.659439,-3034.844362,-8882.471304,919.314598
1136.659752,-3256.906145,-8882.471304,612.876398
1136.660064,-3182.885551,-9104.533087,995.924147
1136.660377,-3330.926739,-9030.512492,842.705048
1136.660690,-2960.823768,-8956.491898,842.705048
1136.661002,-2812.782580,-9030.512492,1762.019645
1136.661315,-3182.885551,-8734.430116,536.266849
1136.661627,-3478.967927,-9104.533087,1532.190996
1136.661940,-3404.947333,-8956.491898,1532.190996
1136.662253,-3330.926739,-8956.491898,1302.362347
1136.662565,-3552.988522,-8956.491898,1149.143247
1136.662878,-3627.009116,-8882.471304,1072.533697
1136.663191,-3775.050304,-8808.450710,1072.533697
1136.663503,-3701.029710,-9104.533087,1072.533697
1136.663816,-3923.091493,-8734.430116,1302.362347
1136.664128,-3701.029710,-8438.347739,919.314598
1136.664441,-3552.988522,-8216.285956,1608.800546
1136.664754,-3849.070898,-8438.347739,1225.752797
1136.665066,-4071.132681,-8290.306550,1455.581446
1136.665379,-4219.173869,-8364.327145,1378.971896
1136.665692,-4071.132681,-8216.285956,1225.752797
1136.666004,-4145.153275,-8290.306550,1225.752797
1136.666317,-4145.153275,-8364.327145,1378.971896
1136.666629,-3849.070898,-8660.409521,842.705048
1136.666942,-4145.153275,-8512.368333,842.705048
1136.667255,-4219.173869,-8734.430116,1302.362347
1136.667567,-4367.215058,-8956.491898,1302.362347
1136.667880,-4293.194464,-8734.430116,1149.143247
1136.668192,-3997.112087,-8660.409521,2068.457845
1136.668505,-3849.070898,-8290.306550,995.924147
1136.668818,-3923.091493,-8364.327145,1072.533697
1136.669130,-3997.112087,-8586.388927,689.485948
1136.669443,-4219.173869,-8364.327145,383.047749
1136.669756,-4219.173869,-8438.347739,689.485948
1136.670068,-4367.215058,-8512.368333,612.876398
1136.670381,-4293.194464,-8438.347739,459.657299
1136.670693,-4515.256246,-8586.388927,459.657299
1136.671006,-4219.173869,-8512.368333,536.266849
1136.671319,-4219.173869,-8216.285956,919.314598
1136.671631,-3849.070898,-8364.327145,995.924147
1136.671944,-3849.070898,-8364.327145,536.266849
1136.672256,-3552.988522,-8882.471304,306.438199
1136.672569,-3404.947333,-8956.491898,383.047749
1136.672882,-3256.906145,-9030.512492,766.095498
1136.673194,-3552.988522,-9252.574275,612.876398
1136.673507,-3330.926739,-9030.512492,1302.362347
1136.673820,-3627.009116,-9178.553681,1072.533697
1136.674132,-4219.173869,-8438.347739,153.219100
1136.674445,-3627.009116,-9104.533087,-153.219100
1136.674757,-3997.112087,-8512.368333,0.000000
1136.675070,-3849.070898,-8882.471304,0.000000
1136.675383,-4219.173869,-8586.388927,-153.219100
1136.675695,-3997.112087,-8364.327145,0.000000
1136.676008,-3552.988522,-8808.450710,-229.828649
1136.676321,-3849.070898,-8734.430116,0.000000
1136.676633,-4219.173869,-8660.409521,153.219100
1136.676946,-3701.029710,-9252.574275,0.000000
1136.677258,-3997.112087,-8734.430116,76.609550
1136.677571,-3552.988522,-9400.615463,229.828649
1136.677884,-3404.947333,-9178.553681,0.000000
1136.678196,-3627.009116,-9030.512492,612.876398
1136.678509,-3256.906145,-9030.512492,306.438199
1136.678821,-3182.885551,-9030.512492,306.438199
1136.679134,-3108.864956,-9178.553681,306.438199
1136.679447,-3923.091493,-8956.491898,536.266849
1136.679759,-3701.029710,-8660.409521,612.876398
1136.680072,-3330.926739,-8956.491898,306.438199
1136.680385,-4145.153275,-8438.347739,0.000000
1136.680697,-4589.276840,-8438.347739,229.828649
1136.681010,-4145.153275,-8364.327145,689.485948
1136.681322,-4071.132681,-8068.244768,306.438199
1136.681635,-4367.215058,-8660.409521,0.000000
1136.681948,-4589.276840,-8660.409521,383.047749
1136.682260,-4515.256246,-8660.409521,536.266849
1136.682573,-4811.338623,-8734.430116,842.705048
1136.682886,-3923.091493,-8734.430116,1225.752797
1136.683198,-3775.050304,-8660.409521,153.219100
1136.683511,-3627.009116,-9030.512492,612.876398
1136.683823,-4441.235652,-8882.471304,995.924147
1136.684136,-4071.132681,-8216.285956,1378.971896
1136.684449,-3923.091493,-8586.388927,1072.533697
1136.684761,-3775.050304,-9104.533087,612.876398
1136.685074,-4071.132681,-8660.409521,919.314598
1136.685386,-3701.029710,-8438.347739,842.705048
1136.685699,-3775.050304,-8660.409521,995.924147
1136.686012,-3997.112087,-7920.203579,842.705048
1136.686324,-4071.132681,-8438.347739,1685.410096
1136.686637,-4293.194464,-8734.430116,1302.362347
1136.686950,-4219.173869,-8660.409521,919.314598
1136.687262,-3997.112087,-8808.450710,766.095498
1136.687575,-3701.029710,-8512.368333,766.095498
1136.687887,-3775.050304,-8586.388927,1225.752797
1136.688200,-4219.173869,-8364.327145,1685.410096
1136.688513,-3404.947333,-8142.265362,1072.533697
1136.688825,-3108.864956,-8586.388927,842.705048
1136.689138,-3108.864956,-8438.347739,689.485948
1136.689451,-3256.906145,-8734.430116,1225.752797
1136.689763,-3256.906145,-8586.388927,1149.143247
1136.690076,-3108.864956,-8660.409521,766.095498
1136.690388,-3330.926739,-8956.491898,919.314598
1136.690701,-3330.926739,-8734.430116,689.485948
1136.691014,-3182.885551,-9252.574275,766.095498
1136.691326,-3404.947333,-9326.594869,459.657299
1136.691639,-3627.009116,-8808.450710,1302.362347
1136.691951,-3701.029710,-8882.471304,1072.533697
1136.692264,-3997.112087,-8808.450710,1149.143247
1136.692577,-3775.050304,-8882.471304,536.266849
1136.692889,-3552.988522,-9030.512492,766.095498
1136.693202,-3923.091493,-8290.306550,306.438199
1136.693515,-3775.050304,-8068.244768,766.095498
1136.693827,-3701.029710,-8586.388927,1378.971896
1136.694140,-3849.070898,-8882.471304,689.485948
1136.694452,-3775.050304,-9030.512492,459.657299
1136.694765,-3849.070898,-8734.430116,153.219100
1136.695078,-3701.029710,-8660.409521,306.438199
1136.695390,-3701.029710,-8956.491898,689.485948
1136.695703,-3330.926739,-8438.347739,1072.533697
1136.696016,-3182.885551,-8586.388927,1455.581446
1136.696328,-3627.009116,-8956.491898,842.705048
1136.696641,-4071.132681,-8512.368333,1455.581446
1136.696953,-3701.029710,-9104.533087,612.876398
1136.697266,-3849.070898,-8882.471304,0.000000
1136.697579,-4293.194464,-9030.512492,0.000000
1136.697891,-4589.276840,-8660.409521,689.485948
1136.698204,-4663.297435,-8512.368333,689.485948
1136.698516,-4145.153275,-9178.553681,919.314598
1136.698829,-3775.050304,-8660.409521,-229.828649
1136.699142,-3849.070898,-8438.347739,76.609550
1136.699454,-3775.050304,-9178.553681,536.266849
1136.699767,-3701.029710,-8808.450710,995.924147
1136.700080,-3404.947333,-8882.471304,1225.752797
1136.700392,-3256.906145,-8586.388927,1302.362347
1136.700705,-2886.803174,-9104.533087,1149.143247
1136.701017,-3775.050304,-8882.471304,1149.143247
1136.701330,-4219.173869,-8882.471304,1302.362347
1136.701643,-3627.009116,-8882.471304,536.266849
1136.701955,-4145.153275,-8512.368333,459.657299
1136.702268,-4737.318029,-8512.368333,536.266849
1136.702581,-4515.256246,-7920.203579,383.047749
1136.702893,-3849.070898,-7994.224174,0.000000
1136.703206,-3701.029710,-8660.409521,766.095498
1136.703518,-4367.215058,-7994.224174,459.657299
1136.703831,-3552.988522,-8142.265362,689.485948
1136.704144,-2960.823768,-9030.512492,689.485948
1136.704456,-2738.761985,-8882.471304,919.314598
1136.704769,-2738.761985,-9030.512492,1072.533697
1136.705081,-2960.823768,-9178.553681,1455.581446
1136.705394,-3478.967927,-9104.533087,1378.971896
1136.705707,-2960.823768,-9252.574275,1608.800546
1136.706019,-3552.988522,-8660.409521,689.485948
1136.706332,-3997.112087,-8882.471304,383.047749
1136.706645,-4441.235652,-8956.491898,0.000000
1136.706957,-4663.297435,-7920.203579,-153.219100
1136.707270,-5107.421000,-8438.347739,0.000000
1136.707582,-5773.606348,-7846.182985,229.828649
1136.707895,-5107.421000,-7994.224174,-229.828649
1136.708208,-4737.318029,-8068.244768,0.000000
1136.708520,-4663.297435,-7772.162391,-612.876398
1136.708833,-4737.318029,-8438.347739,229.828649
1136.709146,-5255.462188,-8660.409521,229.828649
1136.709458,-5107.421000,-8660.409521,459.657299
1136.709771,-4737.318029,-9178.553681,0.000000
1136.710083,-4589.276840,-9030.512492,-842.705048
1136.710396,-3997.112087,-9326.594869,-306.438199
1136.710709,-4441.235652,-8734.430116,-536.266849
1136.711021,-3997.112087,-8882.471304,306.438199
1136.711334,-4441.235652,-9104.533087,383.047749
1136.711646,-3997.112087,-8808.450710,459.657299
1136.711959,-3997.112087,-8512.368333,229.828649
1136.712272,-3923.091493,-8734.430116,0.000000
1136.712584,-4219.173869,-8438.347739,459.657299
1136.712897,-4367.215058,-8142.265362,536.266849
1136.713210,-4515.256246,-8142.265362,0.000000
1136.713522,-4441.235652,-8808.450710,0.000000
1136.713835,-4367.215058,-8956.491898,0.000000
1136.714147,-4145.153275,-9178.553681,0.000000
1136.714460,-3923.091493,-9400.615463,0.000000
1136.714773,-3404.947333,-9696.697840,919.314598
1136.715085,-3849.070898,-9326.594869,536.266849
1136.715398,-3330.926739,-9252.574275,1302.362347
1136.715711,-2516.700203,-9252.574275,1225.752797
1136.716023,-2738.761985,-9030.512492,842.705048
1136.716336,-2886.803174,-8660.409521,995.924147
1136.716648,-3034.844362,-8660.409521,766.095498
1136.716961,-3330.926739,-8438.347739,1072.533697
1136.717274,-3552.988522,-8808.450710,1225.752797
1136.717586,-3775.050304,-8290.306550,919.314598
1136.717899,-3775.050304,-8142.265362,919.314598
1136.718211,-3923.091493,-8068.244768,842.705048
1136.718524,-4071.132681,-8734.430116,766.095498
1136.718837,-3997.112087,-8660.409521,842.705048
1136.719149,-4145.153275,-8956.491898,766.095498
1136.719462,-3923.091493,-8808.450710,842.705048
1136.719775,-3404.947333,-8808.450710,1685.410096
1136.720087,-3108.864956,-8956.491898,1838.629195
1136.720400,-3552.988522,-9104.533087,1532.190996
1136.720712,-3701.029710,-8438.347739,2221.676944
1136.721025,-3182.885551,-9030.512492,1762.019645
1136.721338,-3182.885551,-8660.409521,1455.581446
1136.721650,-3182.885551,-8586.388927,1149.143247
1136.721963,-3404.947333,-8438.347739,1072.533697
1136.722275,-3775.050304,-8290.306550,1762.019645
1136.722588,-3775.050304,-8734.430116,1838.629195
1136.722901,-3775.050304,-8438.347739,1302.362347
1136.723213,-3997.112087,-8438.347739,1149.143247
1136.723526,-4071.132681,-8808.450710,842.705048
1136.723839,-4219.173869,-8808.450710,1072.533697
1136.724151,-3923.091493,-8882.471304,1378.971896
1136.724464,-3404.947333,-8882.471304,1838.629195
1136.724776,-3552.988522,-9030.512492,1685.410096
1136.725089,-3923.091493,-8808.450710,919.314598
1136.725402,-3701.029710,-8586.388927,536.266849
1136.725714,-3849.070898,-8660.409521,766.095498
1136.726027,-3701.029710,-8808.450710,1072.533697
1136.726340,-3849.070898,-8660.409521,1072.533697
1136.726652,-3849.070898,-8512.368333,1302.362347
1136.726965,-3849.070898,-8364.327145,1302.362347
1136.727277,-4293.194464,-8586.388927,1302.362347
1136.727590,-4663.297435,-8660.409521,0.000000
1136.727903,-4219.173869,-8438.347739,459.657299
1136.728215,-4589.276840,-8290.306550,383.047749
1136.728528,-4589.276840,-8364.327145,459.657299
1136.728840,-4589.276840,-8438.347739,536.266849
1136.729153,-4367.215058,-8734.430116,612.876398
1136.729466,-4441.235652,-8364.327145,306.438199
1136.729778,-4589.276840,-8586.388927,536.266849
1136.730091,-4367.215058,-8882.471304,0.000000
1136.730404,-3923.091493,-8882.471304,229.828649
1136.730716,-3775.050304,-8956.491898,0.000000
1136.731029,-3923.091493,-8956.491898,76.609550
1136.731341,-4071.132681,-9030.512492,229.828649
1136.731654,-3849.070898,-8882.471304,383.047749
1136.731967,-3552.988522,-8734.430116,689.485948
1136.732279,-3552.988522,-8808.450710,383.047749
1136.732592,-4071.132681,-8438.347739,-536.266849
1136.732905,-3775.050304,-8512.368333,76.609550
1136.733217,-3775.050304,-8882.471304,0.000000
1136.733530,-4071.132681,-8956.491898,76.609550
1136.733842,-4219.173869,-8882.471304,0.000000
1136.734155,-3997.112087,-9252.574275,-842.705048
1136.734468,-3923.091493,-8956.491898,-306.438199
1136.734780,-3997.112087,-8882.471304,-1072.533697
1136.735093,-3849.070898,-8882.471304,-689.485948
1136.735405,-3627.009116,-9178.553681,-153.219100
1136.735718,-3552.988522,-9400.615463,0.000000
1136.736031,-3330.926739,-9326.594869,0.000000
1136.736343,-3034.844362,-9104.533087,306.438199
1136.736656,-3256.906145,-9178.553681,153.219100
1136.736969,-3330.926739,-9104.533087,842.705048
1136.737281,-3404.947333,-8882.471304,995.924147
1136.737594,-3404.947333,-9104.533087,459.657299
1136.737906,-3849.070898,-8882.471304,229.828649
1136.738219,-4071.132681,-8586.388927,0.000000
1136.738532,-4589.276840,-8660.409521,0.000000
1136.738844,-4219.173869,-8586.388927,76.609550
1136.739157,-4515.256246,-8364.327145,153.219100
1136.739470,-4441.235652,-8290.306550,536.266849
1136.739782,-4071.132681,-8290.306550,689.485948
1136.740095,-3849.070898,-8882.471304,536.266849
1136.740407,-3108.864956,-8734.430116,459.657299
1136.740720,-2738.761985,-9252.574275,1072.533697
1136.741033,-2442.679609,-9252.574275,1072.533697
1136.741345,-2368.659014,-9326.594869,1915.238745
1136.741658,-2368.659014,-9474.636058,2145.067394
1136.741970,-2442.679609,-8660.409521,1762.019645
1136.742283,-1702.473667,-9474.636058,1608.800546
1136.742596,-2072.576638,-9400.615463,1762.019645
1136.742908,-2146.597232,-9104.533087,1838.629195
1136.743221,-2368.659014,-9252.574275,2145.067394
1136.743534,-2664.741391,-9030.512492,2145.067394
1136.743846,-2442.679609,-8364.327145,1991.848295
1136.744159,-2960.823768,-8438.347739,2221.676944
1136.744471,-3552.988522,-8364.327145,2221.676944
1136.744784,-3775.050304,-8438.347739,2374.896044
1136.745097,-3923.091493,-8216.285956,1915.238745
1136.745409,-4145.153275,-8290.306550,2374.896044
1136.745722,-4071.132681,-8290.306550,1915.238745
1136.746035,-3775.050304,-8586.388927,2221.676944
1136.746347,-3775.050304,-8438.347739,1685.410096
1136.746660,-3330.926739,-8438.347739,2145.067394
1136.746972,-3552.988522,-8734.430116,2681.334243
1136.747285,-4071.132681,-8882.471304,2528.115143
1136.747598,-3478.967927,-8882.471304,2451.505594
1136.747910,-3182.885551,-8808.450710,2298.286494
1136.748223,-3478.967927,-8956.491898,2298.286494
1136.748535,-3701.029710,-8660.409521,2374.896044
1136.748848,-3627.009116,-7846.182985,2451.505594
1136.749161,-3552.988522,-8512.368333,1838.629195
1136.749473,-3404.947333,-8364.327145,1455.581446
1136.749786,-3775.050304,-8364.327145,1838.629195
1136.750099,-3701.029710,-8438.347739,1762.019645
1136.750411,-3849.070898,-8512.368333,1915.238745
1136.750724,-3701.029710,-8956.491898,1762.019645
1136.751036,-3404.947333,-8586.388927,1608.800546
1136.751349,-2960.823768,-9104.533087,1455.581446
1136.751662,-3034.844362,-9104.533087,1608.800546
1136.751974,-3182.885551,-8660.409521,1685.410096
1136.752287,-3256.906145,-8808.450710,1455.581446
1136.752600,-2960.823768,-8882.471304,1225.752797
1136.752912,-3034.844362,-9252.574275,1378.971896
1136.753225,-2886.803174,-9178.553681,1455.581446
1136.753537,-3108.864956,-8882.471304,1532.190996
1136.753850,-2886.803174,-9104.533087,1225.752797
1136.754163,-3182.885551,-8734.430116,919.314598
1136.754475,-3627.009116,-8956.491898,612.876398
1136.754788,-3330.926739,-8956.491898,536.266849
1136.755100,-3478.967927,-8882.471304,459.657299
1136.755413,-3478.967927,-8734.430116,306.438199
1136.755726,-3256.906145,-9252.574275,766.095498
1136.756038,-3108.864956,-8956.491898,459.657299
1136.756351,-3701.029710,-8956.491898,536.266849
1136.756664,-2960.823768,-9326.594869,995.924147
1136.756976,-3182.885551,-9178.553681,766.095498
1136.757289,-3034.844362,-9252.574275,459.657299
1136.757601,-3034.844362,-9104.533087,306.438199
1136.757914,-2960.823768,-9030.512492,0.000000
1136.758227,-2664.741391,-9326.594869,229.828649
1136.758539,-3108.864956,-9104.533087,536.266849
1136.758852,-2960.823768,-9178.553681,1149.143247
1136.759165,-3330.926739,-8512.368333,153.219100
1136.759477,-3404.947333,-9178.553681,536.266849
1136.759790,-3478.967927,-8882.471304,536.266849
1136.760102,-3552.988522,-8956.491898,536.266849
1136.760415,-3627.009116,-8808.450710,229.828649
1136.760728,-3627.009116,-8956.491898,306.438199
1136.761040,-3330.926739,-8734.430116,306.438199
1136.761353,-3552.988522,-8660.409521,536.266849
1136.761665,-3404.947333,-8808.450710,306.438199
1136.761978,-3552.988522,-9178.553681,0.000000
1136.762291,-3330.926739,-9400.615463,536.266849
1136.762603,-3330.926739,-9178.553681,689.485948
1136.762916,-3478.967927,-9178.553681,995.924147
1136.763229,-2812.782580,-9400.615463,1149.143247
1136.763541,-3108.864956,-8882.471304,1149.143247
1136.763854,-3330.926739,-8956.491898,1072.533697
1136.764166,-3701.029710,-9030.512492,383.047749
1136.764479,-3552.988522,-8882.471304,612.876398
1136.764792,-3627.009116,-8882.471304,766.095498
1136.765104,-3627.009116,-8808.450710,1072.533697
1136.765417,-3701.029710,-8882.471304,1378.971896
1136.765730,-3997.112087,-8734.430116,1532.190996
1136.766042,-3775.050304,-8808.450710,1762.019645
1136.766355,-3775.050304,-8734.430116,995.924147
1136.766667,-3627.009116,-8586.388927,995.924147
1136.766980,-3627.009116,-8734.430116,1072.533697
1136.767292,-3330.926739,-8882.471304,1149.143247
1136.767605,-3330.926739,-8808.450710,1455.581446
1136.767918,-3034.844362,-8586.388927,1762.019645
1136.768230,-3627.009116,-9030.512492,2681.334243
1136.768543,-3034.844362,-9252.574275,2681.334243
1136.768855,-3256.906145,-8364.327145,2221.676944
1136.769168,-3108.864956,-8808.450710,1685.410096
1136.769480,-3182.885551,-8660.409521,1838.629195
1136.769793,-3404.947333,-8586.388927,1838.629195
1136.770106,-3330.926739,-8660.409521,1608.800546
1136.770418,-3330.926739,-8290.306550,1915.238745
1136.770731,-3627.009116,-8142.265362,1915.238745
1136.771043,-3849.070898,-8586.388927,1685.410096
1136.771356,-3330.926739,-8586.388927,1532.190996
1136.771668,-3330.926739,-8882.471304,1608.800546
1136.771981,-3256.906145,-8734.430116,1532.190996
1136.772294,-3108.864956,-8882.471304,1685.410096
1136.772606,-2886.803174,-9252.574275,1838.629195
1136.772919,-2368.659014,-8660.409521,1762.019645
1136.773231,-2590.720797,-8882.471304,2068.457845
1136.773544,-2738.761985,-9104.533087,2528.115143
1136.773856,-2442.679609,-9030.512492,1378.971896
1136.774169,-2812.782580,-9400.615463,1532.190996
1136.774482,-3330.926739,-8808.450710,1762.019645
1136.774794,-2886.803174,-9030.512492,1455.581446
1136.775107,-3478.967927,-8956.491898,1378.971896
1136.775419,-3404.947333,-8808.450710,1915.238745
1136.775732,-3330.926739,-8734.430116,1225.752797
1136.776044,-3330.926739,-8808.450710,1072.533697
1136.776357,-3627.009116,-8734.430116,1149.143247
1136.776669,-3552.988522,-8808.450710,1072.533697
1136.776982,-3256.906145,-8660.409521,1302.362347
1136.777295,-3256.906145,-9252.574275,1302.362347
1136.777607,-2664.741391,-9326.594869,1149.143247
1136.777920,-2664.741391,-9252.574275,995.924147
1136.778232,-3478.967927,-8734.430116,1762.019645
1136.778545,-3404.947333,-8734.430116,1608.800546
1136.778857,-3034.844362,-8734.430116,842.705048
1136.779170,-2886.803174,-8956.491898,0.000000
1136.779483,-3182.885551,-9326.594869,306.438199
1136.779795,-3552.988522,-9030.512492,766.095498
1136.780108,-3478.967927,-8882.471304,1378.971896
1136.780420,-3775.050304,-8808.450710,842.705048
1136.780733,-3849.070898,-8808.450710,1302.362347
1136.781045,-3552.988522,-8660.409521,306.438199
1136.781358,-4071.132681,-8808.450710,0.000000
1136.781671,-3775.050304,-9400.615463,-306.438199
1136.781983,-3330.926739,-9104.533087,459.657299
1136.782296,-3701.029710,-8882.471304,1149.143247
1136.782608,-3997.112087,-9474.636058,1302.362347
1136.782921,-3404.947333,-9474.636058,766.095498
1136.783233,-2664.741391,-9400.615463,536.266849
1136.783546,-3627.009116,-8734.430116,689.485948
1136.783859,-3627.009116,-8882.471304,919.314598
1136.784171,-3552.988522,-8586.388927,1072.533697
1136.784484,-3182.885551,-8882.471304,766.095498
1136.784796,-3256.906145,-8808.450710,842.705048
1136.785109,-3627.009116,-8660.409521,1225.752797
1136.785421,-3627.009116,-8734.430116,919.314598
1136.785734,-3923.091493,-8808.450710,1455.581446
1136.786047,-3478.967927,-9252.574275,919.314598
1136.786359,-3923.091493,-8808.450710,919.314598
1136.786672,-4367.215058,-8586.388927,766.095498
1136.786984,-3627.009116,-8512.368333,612.876398
1136.787297,-3627.009116,-8956.491898,842.705048
1136.787609,-3775.050304,-9030.512492,1072.533697
1136.787922,-3182.885551,-9326.594869,1455.581446
1136.788234,-3330.926739,-8956.491898,995.924147
1136.788547,-2886.803174,-9474.636058,919.314598
1136.788860,-2960.823768,-9252.574275,919.314598
1136.789172,-3404.947333,-9104.533087,1302.362347
1136.789485,-3478.967927,-8956.491898,1532.190996
1136.789797,-3552.988522,-8734.430116,995.924147
1136.790110,-3108.864956,-8734.430116,1225.752797
1136.790422,-3034.844362,-8808.450710,1072.533697
1136.790735,-3701.029710,-8734.430116,229.828649
1136.791048,-4293.194464,-7994.224174,1762.019645
1136.791360,-4145.153275,-8068.244768,995.924147
1136.791673,-3849.070898,-8586.388927,919.314598
1136.791985,-3701.029710,-8882.471304,536.266849
1136.792298,-3775.050304,-8660.409521,536.266849
1136.792610,-3627.009116,-8512.368333,1225.752797
1136.792923,-3330.926739,-8808.450710,1378.971896
1136.793236,-2960.823768,-8956.491898,2068.457845
1136.793548,-2442.679609,-8956.491898,1302.362347
1136.793861,-2812.782580,-8734.430116,1302.362347
1136.794173,-3108.864956,-9030.512492,1378.971896
1136.794486,-2664.741391,-9400.615463,1149.143247
1136.794798,-3182.885551,-9178.553681,1302.362347
1136.795111,-3478.967927,-8956.491898,1455.581446
1136.795424,-3552.988522,-8068.244768,995.924147
1136.795736,-3478.967927,-8364.327145,995.924147
1136.796049,-3849.070898,-8438.347739,1225.752797
1136.796361,-3627.009116,-8586.388927,689.485948
1136.796674,-3701.029710,-8660.409521,766.095498
1136.796986,-4293.194464,-8734.430116,1072.533697
1136.797299,-4145.153275,-8882.471304,919.314598
1136.797612,-3404.947333,-8660.409521,1225.752797
1136.797924,-3256.906145,-9030.512492,1225.752797
1136.798237,-3923.091493,-8808.450710,1838.629195
1136.798549,-3701.029710,-8438.347739,1302.362347
1136.798862,-2960.823768,-9474.636058,1072.533697
1136.799174,-3256.906145,-9252.574275,1149.143247
1136.799487,-3182.885551,-9104.533087,1455.581446
1136.799799,-3478.967927,-9178.553681,1685.410096
1136.800112,-3034.844362,-9104.533087,1378.971896
1136.800425,-2960.823768,-9178.553681,1532.190996
1136.800737,-3330.926739,-9104.533087,1302.362347
1136.801050,-3627.009116,-8882.471304,1608.800546
1136.801362,-3404.947333,-9178.553681,1455.581446
1136.801675,-3478.967927,-8438.347739,1149.143247
1136.801987,-3256.906145,-8660.409521,1378.971896
1136.802300,-3404.947333,-8734.430116,1762.019645
1136.802613,-3256.906145,-8586.388927,1762.019645
1136.802925,-2664.741391,-9104.533087,1302.362347
1136.803238,-2812.782580,-8438.347739,1149.143247
1136.803550,-2886.803174,-8956.491898,1378.971896
1136.803863,-2738.761985,-9252.574275,1685.410096
1136.804175,-2738.761985,-9178.553681,1838.629195
1136.804488,-2072.576638,-9474.636058,1608.800546
1136.804801,-1998.556043,-9622.677246,2068.457845
1136.805113,-2146.597232,-9252.574275,2068.457845
1136.805426,-2146.597232,-9474.636058,1378.971896
1136.805738,-2220.617826,-9104.533087,1455.581446
1136.806051,-2072.576638,-9474.636058,1915.238745
1136.806363,-2442.679609,-9548.656652,2068.457845
1136.806676,-2738.761985,-9030.512492,1838.629195
1136.806989,-2886.803174,-9252.574275,1455.581446
1136.807301,-3182.885551,-8734.430116,1455.581446
1136.807614,-3404.947333,-8290.306550,995.924147
1136.807926,-3775.050304,-8660.409521,995.924147
1136.808239,-3404.947333,-8438.347739,919.314598
1136.808551,-3478.967927,-8586.388927,1225.752797
1136.808864,-3627.009116,-8586.388927,1455.581446
1136.809177,-3627.009116,-8586.388927,1302.362347
1136.809489,-3701.029710,-8660.409521,1455.581446
1136.809802,-3849.070898,-8808.450710,1608.800546
1136.810114,-3701.029710,-8512.368333,1455.581446
1136.810427,-3404.947333,-8660.409521,1378.971896
1136.810739,-3627.009116,-8586.388927,1225.752797
1136.811052,-3478.967927,-8808.450710,995.924147
1136.811365,-3627.009116,-8660.409521,1302.362347
1136.811677,-3627.009116,-9104.533087,1378.971896
1136.811990,-3701.029710,-8882.471304,1072.533697
1136.812302,-3330.926739,-9104.533087,919.314598
1136.812615,-3552.988522,-8734.430116,1532.190996
1136.812927,-3627.009116,-9326.594869,1302.362347
1136.813240,-3330.926739,-8956.491898,1378.971896
1136.813552,-3552.988522,-8882.471304,1149.143247
1136.813865,-3701.029710,-8512.368333,842.705048
1136.814178,-3701.029710,-8808.450710,842.705048
1136.814490,-3701.029710,-8734.430116,306.438199
1136.814803,-3330.926739,-8734.430116,842.705048
1136.815115,-3256.906145,-8512.368333,919.314598
1136.815428,-3627.009116,-8586.388927,1762.019645
1136.815740,-3552.988522,-9178.553681,1149.143247
1136.816053,-3627.009116,-9178.553681,919.314598
1136.816366,-3701.029710,-9030.512492,689.485948
1136.816678,-3849.070898,-8956.491898,536.266849
1136.816991,-3849.070898,-8882.471304,536.266849
1136.817303,-3404.947333,-8956.491898,919.314598
1136.817616,-3478.967927,-8586.388927,612.876398
1136.817928,-3404.947333,-8808.450710,1149.143247
1136.818241,-3627.009116,-8660.409521,766.095498
1136.818554,-3330.926739,-9252.574275,536.266849
1136.818866,-3330.926739,-9178.553681,919.314598
1136.819179,-3330.926739,-9030.512492,995.924147
1136.819491,-3330.926739,-9030.512492,919.314598
1136.819804,-3256.906145,-8660.409521,459.657299
1136.820116,-2738.761985,-8660.409521,383.047749
1136.820429,-2368.659014,-9030.512492,612.876398
1136.820742,-2886.803174,-9178.553681,766.095498
1136.821054,-2886.803174,-9252.574275,1149.143247
1136.821367,-3034.844362,-9548.656652,919.314598
1136.821679,-2738.761985,-9474.636058,1072.533697
1136.821992,-2664.741391,-9030.512492,995.924147
1136.822304,-3034.844362,-9326.594869,1149.143247
1136.822617,-3404.947333,-9030.512492,842.705048
1136.822930,-2812.782580,-9104.533087,1225.752797
1136.823242,-2738.761985,-9030.512492,919.314598
1136.823555,-3034.844362,-8734.430116,1225.752797
1136.823867,-3108.864956,-8956.491898,1072.533697
1136.824180,-2886.803174,-8882.471304,1608.800546
1136.824492,-2960.823768,-9030.512492,1225.752797
1136.824805,-2960.823768,-8734.430116,1991.848295
1136.825117,-3330.926739,-9104.533087,1915.238745
1136.825430,-3627.009116,-8660.409521,1378.971896
1136.825743,-3701.029710,-8734.430116,1302.362347
1136.826055,-3552.988522,-8660.409521,1225.752797
1136.826368,-3701.029710,-8660.409521,995.924147
1136.826680,-3775.050304,-8438.347739,1072.533697
1136.826993,-3997.112087,-7994.224174,1455.581446
1136.827305,-4219.173869,-7920.203579,1302.362347
1136.827618,-3923.091493,-8068.244768,1225.752797
1136.827931,-4145.153275,-8364.327145,1455.581446
1136.828243,-4071.132681,-8586.388927,1532.190996
1136.828556,-4145.153275,-8438.347739,1685.410096
1136.828868,-4219.173869,-8290.306550,1455.581446
1136.829181,-3923.091493,-8216.285956,1532.190996
1136.829493,-3552.988522,-8512.368333,1302.362347
1136.829806,-3256.906145,-8660.409521,1149.143247
1136.830119,-2960.823768,-8808.450710,1149.143247
1136.830431,-3034.844362,-8586.388927,1302.362347
1136.830744,-2960.823768,-9104.533087,1838.629195
1136.831056,-3256.906145,-9104.533087,2068.457845
1136.831369,-3034.844362,-8956.491898,1838.629195
1136.831681,-2072.576638,-9030.512492,1455.581446
1136.831994,-3034.844362,-8660.409521,1608.800546
1136.832307,-2886.803174,-8882.471304,1532.190996
1136.832619,-3552.988522,-8956.491898,1455.581446
1136.832932,-3552.988522,-8734.430116,1225.752797
1136.833244,-3849.070898,-8660.409521,1149.143247
1136.833557,-3849.070898,-8660.409521,995.924147
1136.833869,-3552.988522,-8734.430116,842.705048
1136.834182,-3701.029710,-8808.450710,689.485948
1136.834495,-3923.091493,-8808.450710,153.219100
1136.834807,-3997.112087,-8734.430116,1149.143247
1136.835120,-4145.153275,-8882.471304,995.924147
1136.835432,-3923.091493,-9104.533087,1225.752797
1136.835745,-3775.050304,-8882.471304,689.485948
1136.836057,-3701.029710,-8808.450710,153.219100
1136.836370,-3997.112087,-8364.327145,229.828649
1136.836682,-4145.153275,-8364.327145,689.485948
1136.836995,-3849.070898,-8512.368333,612.876398
1136.837308,-4293.194464,-8512.368333,306.438199
1136.837620,-4219.173869,-8586.388927,306.438199
1136.837933,-4145.153275,-8660.409521,383.047749
1136.838245,-4515.256246,-8808.450710,76.609550
1136.838558,-4219.173869,-8956.491898,0.000000
1136.838870,-3997.112087,-9252.574275,153.219100
1136.839183,-4219.173869,-8438.347739,0.000000
1136.839496,-3849.070898,-8660.409521,0.000000
1136.839808,-3330.926739,-8660.409521,-383.047749
1136.840121,-3256.906145,-8882.471304,229.828649
1136.840433,-3627.009116,-8956.491898,306.438199
1136.840746,-3775.050304,-8956.491898,689.485948
1136.841058,-3701.029710,-9030.512492,76.609550
1136.841371,-3849.070898,-9104.533087,689.485948
1136.841684,-3997.112087,-8364.327145,-229.828649
1136.841996,-4441.235652,-8216.285956,76.609550
1136.842309,-4959.379811,-8068.244768,0.000000
1136.842621,-5033.400406,-8290.306550,0.000000
1136.842934,-5181.441594,-7994.224174,-306.438199
1136.843246,-4885.359217,-8216.285956,-536.266849
1136.843559,-4885.359217,-8290.306550,-689.485948
1136.843872,-4663.297435,-8142.265362,-459.657299
1136.844184,-4219.173869,-8290.306550,-229.828649
1136.844497,-4293.194464,-8808.450710,229.828649
1136.844809,-4293.194464,-8734.430116,536.266849
1136.845122,-3923.091493,-9030.512492,153.219100
1136.845434,-3923.091493,-9104.533087,-153.219100
1136.845747,-3997.112087,-9030.512492,0.000000
1136.846060,-3923.091493,-9178.553681,153.219100
1136.846372,-3849.070898,-8956.491898,229.828649
1136.846685,-4071.132681,-8808.450710,153.219100
1136.846997,-3997.112087,-8734.430116,229.828649
1136.847310,-4219.173869,-8290.306550,76.609550
1136.847622,-4219.173869,-8660.409521,0.000000
1136.847935,-3997.112087,-8586.388927,76.609550
1136.848247,-4145.153275,-8512.368333,229.828649
1136.848560,-3923.091493,-8660.409521,306.438199
1136.848873,-3701.029710,-8068.244768,612.876398
1136.849185,-3330.926739,-8808.450710,76.609550
1136.849498,-3404.947333,-8660.409521,306.438199
1136.849810,-3256.906145,-9400.615463,76.609550
1136.850123,-3330.926739,-9104.533087,842.705048
1136.850435,-3034.844362,-9474.636058,1149.143247
1136.850748,-2886.803174,-9622.677246,1302.362347
1136.851061,-2960.823768,-9326.594869,1149.143247
1136.851373,-2368.659014,-9474.636058,1532.190996
1136.851686,-3034.844362,-9030.512492,842.705048
1136.851998,-3108.864956,-9104.533087,1532.190996
1136.852311,-3330.926739,-8882.471304,1149.143247
1136.852623,-3478.967927,-8734.430116,1072.533697
1136.852936,-3478.967927,-8586.388927,1072.533697
1136.853249,-3849.070898,-8586.388927,1072.533697
1136.853561,-3775.050304,-8364.327145,1072.533697
1136.853874,-3627.009116,-8734.430116,1072.533697
1136.854186,-3775.050304,-8808.450710,1455.581446
1136.854499,-4219.173869,-8734.430116,1608.800546
1136.854811,-3997.112087,-8734.430116,1532.190996
1136.855124,-3923.091493,-8956.491898,1302.362347
1136.855437,-3627.009116,-8882.471304,1378.971896
1136.855749,-3923.091493,-8808.450710,1072.533697
1136.856062,-3627.009116,-8660.409521,1149.143247
1136.856374,-3849.070898,-8290.306550,2068.457845
1136.856687,-3552.988522,-8512.368333,1608.800546
1136.856999,-3849.070898,-8512.368333,1838.629195
1136.857312,-3997.112087,-8438.347739,1532.190996
1136.857625,-3997.112087,-8438.347739,1378.971896
1136.857937,-4219.173869,-8438.347739,1378.971896
1136.858250,-4293.194464,-8290.306550,919.314598
1136.858562,-4071.132681,-8364.327145,1225.752797
1136.858875,-4811.338623,-8216.285956,1302.362347
1136.859187,-4441.235652,-8290.306550,919.314598
1136.859500,-4219.173869,-8660.409521,919.314598
1136.859813,-4219.173869,-8734.430116,995.924147
1136.860125,-4367.215058,-8586.388927,1072.533697
1136.860438,-4145.153275,-8882.471304,919.314598
1136.860750,-3775.050304,-8512.368333,842.705048
1136.861063,-3775.050304,-8808.450710,766.095498
1136.861375,-4293.194464,-8290.306550,612.876398
1136.861688,-4071.132681,-8438.347739,306.438199
1136.862000,-3997.112087,-8512.368333,459.657299
1136.862313,-3923.091493,-8660.409521,76.609550
1136.862626,-4071.132681,-8586.388927,383.047749
1136.862938,-3849.070898,-8882.471304,383.047749
1136.863251,-3849.070898,-8808.450710,612.876398
1136.863563,-3627.009116,-8956.491898,536.266849
1136.863876,-3775.050304,-8734.430116,842.705048
1136.864188,-3627.009116,-8956.491898,153.219100
1136.864501,-3627.009116,-8956.491898,383.047749
1136.864814,-3627.009116,-9104.533087,0.000000
1136.865126,-3849.070898,-8956.491898,229.828649
1136.865439,-3849.070898,-8882.471304,229.828649
1136.865751,-3775.050304,-9030.512492,76.609550
1136.866064,-3701.029710,-8586.388927,153.219100
1136.866376,-3923.091493,-8512.368333,76.609550
1136.866689,-3552.988522,-8660.409521,76.609550
1136.867002,-3849.070898,-8290.306550,0.000000
1136.867314,-3627.009116,-9104.533087,0.000000
1136.867627,-3775.050304,-8734.430116,-229.828649
1136.867939,-3627.009116,-8734.430116,-153.219100
1136.868252,-4145.153275,-8882.471304,153.219100
1136.868564,-3849.070898,-8364.327145,0.000000
1136.868877,-3330.926739,-9252.574275,536.266849
1136.869189,-4293.194464,-9252.574275,306.438199
1136.869502,-4145.153275,-8956.491898,229.828649
1136.869815,-3182.885551,-9178.553681,0.000000
1136.870127,-3478.967927,-9252.574275,-229.828649
1136.870440,-4071.132681,-8956.491898,0.000000
1136.870752,-3923.091493,-8586.388927,229.828649
1136.871065,-3404.947333,-8734.430116,306.438199
1136.871377,-4071.132681,-8882.471304,306.438199
1136.871690,-3627.009116,-8660.409521,-229.828649
1136.872003,-3701.029710,-8586.388927,0.000000
1136.872315,-4293.194464,-8956.491898,766.095498
1136.872628,-4367.215058,-8734.430116,1149.143247
1136.872940,-4293.194464,-8586.388927,383.047749
1136.873253,-3775.050304,-8808.450710,76.609550
1136.873565,-3923.091493,-9178.553681,459.657299
1136.873878,-4367.215058,-8586.388927,995.924147
1136.874190,-4515.256246,-8512.368333,1532.190996
1136.874503,-4219.173869,-8660.409521,1608.800546
1136.874816,-3997.112087,-8808.450710,1149.143247
1136.875128,-4663.297435,-8882.471304,689.485948
1136.875441,-4663.297435,-8660.409521,612.876398
1136.875753,-4293.194464,-8142.265362,1225.752797
1136.876066,-4219.173869,-7772.162391,1685.410096
1136.876378,-4589.276840,-8068.244768,1685.410096
1136.876691,-4145.153275,-8586.388927,1149.143247
1136.877004,-3775.050304,-8882.471304,842.705048
1136.877316,-3552.988522,-8586.388927,995.924147
1136.877629,-3627.009116,-8438.347739,1225.752797
1136.877941,-3478.967927,-8734.430116,1838.629195
1136.878254,-3404.947333,-8882.471304,1685.410096
1136.878566,-3256.906145,-8438.347739,1532.190996
1136.878879,-2960.823768,-9252.574275,766.095498
1136.879191,-3256.906145,-8956.491898,995.924147
1136.879504,-3404.947333,-8808.450710,1455.581446
1136.879817,-3108.864956,-8808.450710,1302.362347
1136.880129,-3182.885551,-8808.450710,1225.752797
1136.880442,-3182.885551,-8586.388927,919.314598
1136.880754,-3034.844362,-8734.430116,1149.143247
1136.881067,-3256.906145,-8438.347739,995.924147
1136.881379,-3330.926739,-8808.450710,1225.752797
1136.881692,-3108.864956,-8734.430116,919.314598
1136.882005,-3849.070898,-8438.347739,995.924147
1136.882317,-4293.194464,-8216.285956,842.705048
1136.882630,-3923.091493,-8660.409521,766.095498
1136.882942,-3404.947333,-8660.409521,76.609550
1136.883255,-3256.906145,-8956.491898,229.828649
1136.883567,-3034.844362,-8660.409521,612.876398
1136.883880,-3552.988522,-8956.491898,919.314598
1136.884192,-4071.132681,-8808.450710,995.924147
1136.884505,-3923.091493,-8956.491898,1072.533697
1136.884818,-3478.967927,-9178.553681,306.438199
1136.885130,-3404.947333,-9400.615463,0.000000
1136.885443,-3701.029710,-9252.574275,-229.828649
1136.885755,-4071.132681,-8734.430116,842.705048
1136.886068,-3478.967927,-8438.347739,1378.971896
1136.886380,-3701.029710,-9030.512492,919.314598
1136.886693,-3404.947333,-9252.574275,76.609550
1136.887006,-3627.009116,-8438.347739,153.219100
1136.887318,-3775.050304,-8734.430116,689.485948
1136.887631,-3552.988522,-8734.430116,1608.800546
1136.887943,-3849.070898,-8882.471304,766.095498
1136.888256,-4663.297435,-8438.347739,1072.533697
1136.888568,-4071.132681,-8512.368333,153.219100
1136.888881,-4145.153275,-8808.450710,229.828649
1136.889193,-4515.256246,-8882.471304,229.828649
1136.889506,-4293.194464,-8734.430116,153.219100
1136.889819,-4145.153275,-8586.388927,0.000000
1136.890131,-4145.153275,-8660.409521,0.000000
1136.890444,-4219.173869,-8290.306550,536.266849
1136.890756,-3108.864956,-8660.409521,383.047749
1136.891069,-3256.906145,-8734.430116,229.828649
1136.891381,-3997.112087,-9104.533087,995.924147
1136.891694,-3849.070898,-8808.450710,842.705048
1136.892007,-3552.988522,-8660.409521,459.657299
1136.892319,-3849.070898,-9104.533087,689.485948
1136.892632,-3775.050304,-8512.368333,-306.438199
1136.892944,-3849.070898,-8364.327145,536.266849
1136.893257,-4145.153275,-8512.368333,229.828649
1136.893569,-3923.091493,-8660.409521,612.876398
1136.893882,-3627.009116,-8734.430116,536.266849
1136.894194,-3923.091493,-8512.368333,76.609550
1136.894507,-3701.029710,-8364.327145,229.828649
1136.894820,-3627.009116,-8808.450710,-229.828649
1136.895132,-3849.070898,-8068.244768,459.657299
1136.895445,-4589.276840,-8438.347739,842.705048
1136.895757,-4737.318029,-8438.347739,536.266849
1136.896070,-4293.194464,-8364.327145,0.000000
1136.896382,-4367.215058,-8956.491898,0.000000
1136.896695,-4737.318029,-8586.388927,0.000000
1136.897008,-4737.318029,-8512.368333,459.657299
1136.897320,-5255.462188,-8364.327145,1225.752797
1136.897633,-4959.379811,-8290.306550,306.438199
1136.897945,-5181.441594,-8660.409521,0.000000
1136.898258,-4959.379811,-7920.203579,0.000000
1136.898570,-4737.318029,-8290.306550,-459.657299
1136.898883,-4737.318029,-8216.285956,-229.828649
1136.899195,-4515.256246,-8586.388927,0.000000
1136.899508,-4515.256246,-8734.430116,229.828649
1136.899821,-3849.070898,-8734.430116,459.657299
1136.900133,-4145.153275,-8808.450710,306.438199
1136.900446,-3775.050304,-8734.430116,76.609550
1136.900758,-3775.050304,-9104.533087,306.438199
1136.901071,-3997.112087,-9400.615463,612.876398
1136.901383,-3997.112087,-9178.553681,306.438199
1136.901696,-3775.050304,-9548.656652,229.828649
1136.902009,-3775.050304,-9178.553681,76.609550
1136.902321,-3478.967927,-9104.533087,383.047749
1136.902634,-3701.029710,-8956.491898,612.876398
1136.902946,-3775.050304,-8364.327145,842.705048
1136.903259,-3330.926739,-8956.491898,0.000000
1136.903571,-3552.988522,-8734.430116,689.485948
1136.903884,-3404.947333,-8882.471304,689.485948
1136.904196,-3478.967927,-8956.491898,536.266849
1136.904509,-3627.009116,-8956.491898,689.485948
1136.904822,-3552.988522,-8808.450710,536.266849
1136.905134,-4293.194464,-8808.450710,1072.533697
1136.905447,-3627.009116,-8882.471304,1072.533697
1136.905759,-3552.988522,-8734.430116,536.266849
1136.906072,-3627.009116,-8956.491898,536.266849
1136.906384,-3627.009116,-8808.450710,842.705048
1136.906697,-3552.988522,-8734.430116,995.924147
1136.907010,-3552.988522,-8438.347739,1685.410096
1136.907322,-3478.967927,-8216.285956,1302.362347
1136.907635,-3478.967927,-8660.409521,1455.581446
1136.907947,-2886.803174,-8808.450710,1302.362347
1136.908260,-3478.967927,-8660.409521,1149.143247
1136.908572,-3997.112087,-8586.388927,1149.143247
1136.908885,-3849.070898,-8734.430116,842.705048
1136.909197,-3849.070898,-8808.450710,919.314598
1136.909510,-3701.029710,-8586.388927,612.876398
1136.909823,-3552.988522,-8438.347739,1225.752797
1136.910135,-3701.029710,-8216.285956,689.485948
1136.910448,-3256.906145,-8956.491898,919.314598
1136.910760,-3627.009116,-8808.450710,1149.143247
1136.911073,-3552.988522,-8808.450710,1455.581446
1136.911385,-3552.988522,-8660.409521,1455.581446
1136.911698,-3404.947333,-8734.430116,1302.362347
1136.912010,-3627.009116,-8956.491898,1149.143247
1136.912323,-3627.009116,-8734.430116,1455.581446
1136.912636,-3404.947333,-8438.347739,1838.629195
1136.912948,-3404.947333,-8734.430116,1302.362347
1136.913261,-3923.091493,-8808.450710,995.924147
1136.913573,-3997.112087,-8734.430116,995.924147
1136.913886,-3997.112087,-8734.430116,995.924147
1136.914198,-4441.235652,-8438.347739,383.047749
1136.914511,-4367.215058,-8512.368333,1225.752797
1136.914824,-4145.153275,-8364.327145,1149.143247
1136.915136,-4515.256246,-7920.203579,1149.143247
1136.915449,-4293.194464,-8216.285956,383.047749
1136.915761,-4293.194464,-8290.306550,536.266849
1136.916074,-4441.235652,-8438.347739,536.266849
1136.916386,-4515.256246,-8364.327145,766.095498
1136.916699,-4589.276840,-8068.244768,536.266849
1136.917011,-4441.235652,-8216.285956,306.438199
1136.917324,-4145.153275,-8586.388927,459.657299
1136.917637,-4367.215058,-8438.347739,459.657299
1136.917949,-4219.173869,-8512.368333,153.219100
1136.918262,-4145.153275,-8660.409521,306.438199
1136.918574,-3923.091493,-8586.388927,153.219100
1136.918887,-4145.153275,-8808.450710,0.000000
1136.919199,-3923.091493,-8586.388927,76.609550
1136.919512,-3997.112087,-8660.409521,229.828649
1136.919825,-3404.947333,-8734.430116,612.876398
1136.920137,-3108.864956,-8808.450710,383.047749
1136.920450,-3775.050304,-9030.512492,153.219100
1136.920762,-3701.029710,-8808.450710,0.000000
1136.921075,-3627.009116,-9030.512492,-153.219100
1136.921387,-3627.009116,-9030.512492,0.000000
1136.921700,-3849.070898,-8586.388927,0.000000
1136.922012,-4071.132681,-8660.409521,0.000000
1136.922325,-4071.132681,-9252.574275,-153.219100
1136.922638,-4145.153275,-8956.491898,0.000000
1136.922950,-3552.988522,-9178.553681,0.000000
1136.923263,-3627.009116,-9252.574275,0.000000
1136.923575,-3849.070898,-9030.512492,0.000000
1136.923888,-4219.173869,-8808.450710,0.000000
1136.924200,-3552.988522,-9030.512492,0.000000
1136.924513,-3404.947333,-9474.636058,-76.609550
1136.924826,-3404.947333,-8956.491898,229.828649
1136.925138,-3330.926739,-8956.491898,0.000000
1136.925451,-3701.029710,-9326.594869,459.657299
1136.925763,-3552.988522,-9400.615463,536.266849
1136.926076,-3552.988522,-9326.594869,766.095498
1136.926388,-3701.029710,-8956.491898,1225.752797
1136.926701,-3330.926739,-8660.409521,612.876398
1136.927013,-3330.926739,-8808.450710,0.000000
1136.927326,-3108.864956,-8882.471304,383.047749
1136.927639,-3330.926739,-8660.409521,612.876398
1136.927951,-3404.947333,-8882.471304,1072.533697
1136.928264,-3330.926739,-8734.430116,919.314598
1136.928576,-2960.823768,-9104.533087,919.314598
1136.928889,-3034.844362,-9400.615463,459.657299
1136.929201,-2294.638420,-9622.677246,1225.752797
1136.929514,-2812.782580,-9474.636058,2221.676944
1136.929827,-2886.803174,-9252.574275,2221.676944
1136.930139,-2738.761985,-9400.615463,1991.848295
1136.930452,-2516.700203,-9104.533087,1762.019645
1136.930764,-2146.597232,-9104.533087,1532.190996
1136.931077,-2368.659014,-8956.491898,1532.190996
1136.931389,-3108.864956,-8512.368333,2145.067394
1136.931702,-3182.885551,-8512.368333,2451.505594
1136.932014,-3330.926739,-8512.368333,2911.162892
1136.932327,-3478.967927,-8364.327145,2451.505594
1136.932640,-3478.967927,-8364.327145,2221.676944
1136.932952,-3701.029710,-8142.265362,1991.848295
1136.933265,-4071.132681,-8216.285956,1838.629195
1136.933577,-4367.215058,-8142.265362,1685.410096
1136.933890,-4293.194464,-8068.244768,2374.896044
1136.934202,-3997.112087,-8364.327145,1991.848295
1136.934515,-3627.009116,-8808.450710,2451.505594
1136.934828,-3404.947333,-8882.471304,2374.896044
1136.935140,-3330.926739,-9030.512492,2604.724693
1136.935453,-3552.988522,-8808.450710,2911.162892
1136.935765,-3478.967927,-9030.512492,2681.334243
1136.936078,-3701.029710,-8512.368333,2528.115143
1136.936390,-2886.803174,-8438.347739,2068.457845
1136.936703,-3034.844362,-8660.409521,1302.362347
1136.937015,-3182.885551,-8364.327145,2221.676944
1136.937328,-3701.029710,-8438.347739,2145.067394
1136.937641,-3923.091493,-8734.430116,2068.457845
1136.937953,-3997.112087,-8586.388927,1838.629195
1136.938266,-3552.988522,-8734.430116,1455.581446
1136.938578,-3404.947333,-8882.471304,1455.581446
1136.938891,-3256.906145,-8216.285956,1072.533697
1136.939203,-3182.885551,-8142.265362,1455.581446
1136.939516,-3034.844362,-8882.471304,1302.362347
1136.939829,-3330.926739,-9030.512492,1378.971896
1136.940141,-2960.823768,-9252.574275,1072.533697
1136.940454,-3034.844362,-9326.594869,1072.533697
1136.940766,-2960.823768,-9400.615463,1302.362347
1136.941079,-3182.885551,-9400.615463,1838.629195
1136.941391,-3108.864956,-9178.553681,1762.019645
1136.941704,-3330.926739,-9326.594869,1378.971896
1136.942016,-3256.906145,-9252.574275,995.924147
1136.942329,-3256.906145,-8882.471304,306.438199
1136.942642,-3330.926739,-8882.471304,0.000000
1136.942954,-3552.988522,-8808.450710,306.438199
1136.943267,-3701.029710,-8734.430116,1072.533697
1136.943579,-3330.926739,-8734.430116,766.095498
1136.943892,-3627.009116,-9104.533087,76.609550
1136.944204,-3552.988522,-9178.553681,459.657299
1136.944517,-3182.885551,-9326.594869,536.266849
1136.944830,-3108.864956,-9474.636058,459.657299
1136.945142,-3108.864956,-9474.636058,612.876398
1136.945455,-3034.844362,-9326.594869,536.266849
1136.945767,-2812.782580,-9030.512492,459.657299
1136.946080,-2886.803174,-9252.574275,306.438199
1136.946392,-3108.864956,-8660.409521,76.609550
1136.946705,-2738.761985,-9252.574275,0.000000
1136.947017,-3330.926739,-8956.491898,689.485948
1136.947330,-3552.988522,-8956.491898,536.266849
1136.947643,-3478.967927,-8660.409521,459.657299
1136.947955,-3330.926739,-8586.388927,306.438199
1136.948268,-3478.967927,-8290.306550,0.000000
1136.948580,-3775.050304,-8438.347739,0.000000
1136.948893,-3775.050304,-8734.430116,153.219100
1136.949205,-3627.009116,-8882.471304,-229.828649
1136.949518,-3627.009116,-9104.533087,153.219100
1136.949831,-3552.988522,-9326.594869,459.657299
1136.950143,-3404.947333,-9400.615463,612.876398
1136.950456,-3552.988522,-9474.636058,1072.533697
1136.950768,-3478.967927,-8808.450710,689.485948
1136.951081,-3108.864956,-9104.533087,1072.533697
1136.951393,-2960.823768,-9104.533087,995.924147
1136.951706,-2960.823768,-8586.388927,842.705048
1136.952018,-3404.947333,-8660.409521,612.876398
1136.952331,-3478.967927,-8438.347739,1149.143247
1136.952644,-3627.009116,-8882.471304,1149.143247
1136.952956,-3552.988522,-8808.450710,1149.143247
1136.953269,-3775.050304,-8734.430116,1225.752797
1136.953581,-3404.947333,-8734.430116,1302.362347
1136.953894,-3923.091493,-8734.430116,1762.019645
1136.954206,-3701.029710,-8734.430116,1762.019645
1136.954519,-3627.009116,-8956.491898,1225.752797
1136.954831,-3701.029710,-8882.471304,1302.362347
1136.955144,-3182.885551,-9104.533087,1378.971896
1136.955457,-3256.906145,-9030.512492,1455.581446
1136.955769,-3330.926739,-8734.430116,1608.800546
1136.956082,-3330.926739,-8734.430116,1685.410096
1136.956394,-3182.885551,-9252.574275,1915.238745
1136.956707,-3182.885551,-8586.388927,1608.800546
1136.957019,-2960.823768,-8882.471304,1762.019645
1136.957332,-2960.823768,-8808.450710,1838.629195
1136.957645,-2960.823768,-8808.450710,1685.410096
1136.957957,-3182.885551,-8882.471304,1838.629195
1136.958270,-3182.885551,-8512.368333,1915.238745
1136.958582,-3627.009116,-8438.347739,1455.581446
1136.958895,-3330.926739,-8586.388927,1455.581446
1136.959207,-3701.029710,-8364.327145,1225.752797
1136.959520,-3627.009116,-8956.491898,1915.238745
1136.959832,-3552.988522,-8956.491898,1915.238745
1136.960145,-3108.864956,-8956.491898,1685.410096
1136.960458,-3478.967927,-9030.512492,1991.848295
1136.960770,-2960.823768,-8512.368333,1838.629195
1136.961083,-2442.679609,-8438.347739,1532.190996
1136.961395,-2886.803174,-8660.409521,1455.581446
1136.961708,-2738.761985,-8586.388927,2145.067394
1136.962020,-2664.741391,-8956.491898,1991.848295
1136.962333,-2960.823768,-8956.491898,1762.019645
1136.962646,-3256.906145,-8956.491898,1532.190996
1136.962958,-3627.009116,-8586.388927,1455.581446
1136.963271,-3256.906145,-8438.347739,1762.019645
1136.963583,-3404.947333,-8438.347739,1378.971896
1136.963896,-3108.864956,-8882.471304,1072.533697
1136.964208,-2812.782580,-9104.533087,766.095498
1136.964521,-3849.070898,-8808.450710,995.924147
1136.964833,-4071.132681,-8660.409521,1685.410096
1136.965146,-3775.050304,-8586.388927,1302.362347
1136.965459,-3256.906145,-8882.471304,306.438199
1136.965771,-3034.844362,-9474.636058,229.828649
1136.966084,-3404.947333,-8734.430116,842.705048
1136.966396,-3256.906145,-8586.388927,1225.752797
1136.966709,-3256.906145,-9400.615463,842.705048
1136.967021,-2960.823768,-9400.615463,919.314598
1136.967334,-3330.926739,-9030.512492,689.485948
1136.967647,-3849.070898,-9104.533087,919.314598
1136.967959,-3775.050304,-8734.430116,76.609550
1136.968272,-3182.885551,-8660.409521,76.609550
1136.968584,-3182.885551,-8364.327145,0.000000
1136.968897,-4293.194464,-8660.409521,842.705048
1136.969209,-4071.132681,-8808.450710,536.266849
1136.969522,-3627.009116,-9104.533087,536.266849
1136.969834,-3552.988522,-9030.512492,459.657299
1136.970147,-4071.132681,-8882.471304,459.657299
1136.970459,-3923.091493,-9030.512492,306.438199
1136.970772,-3627.009116,-9104.533087,0.000000
1136.971085,-2886.803174,-9178.553681,306.438199
1136.971397,-3478.967927,-8882.471304,1225.752797
1136.971710,-3552.988522,-9104.533087,1225.752797
1136.972022,-2886.803174,-9400.615463,1149.143247
1136.972335,-2442.679609,-9696.697840,1072.533697
1136.972647,-2738.761985,-9474.636058,1149.143247
1136.972960,-3552.988522,-8808.450710,2145.067394
1136.973272,-3627.009116,-8660.409521,1302.362347
1136.973585,-3478.967927,-8512.368333,1302.362347
1136.973898,-3701.029710,-8216.285956,459.657299
1136.974210,-4145.153275,-8290.306550,689.485948
1136.974523,-4441.235652,-8068.244768,842.705048
1136.974835,-4663.297435,-8364.327145,995.924147
1136.975148,-3775.050304,-8438.347739,612.876398
1136.975460,-3627.009116,-8586.388927,383.047749
1136.975773,-3775.050304,-8660.409521,459.657299
1136.976085,-4441.235652,-8438.347739,1378.971896
1136.976398,-3108.864956,-8956.491898,1225.752797
1136.976711,-2516.700203,-9326.594869,1149.143247
1136.977023,-2590.720797,-9326.594869,919.314598
1136.977336,-3256.906145,-9178.553681,1149.143247
1136.977648,-3330.926739,-9252.574275,1762.019645
1136.977961,-2590.720797,-9622.677246,2374.896044
1136.978273,-2442.679609,-9400.615463,1225.752797
1136.978586,-3552.988522,-8808.450710,919.314598
1136.978898,-4145.153275,-8216.285956,1149.143247
1136.979211,-4071.132681,-8660.409521,689.485948
1136.979523,-3701.029710,-8586.388927,689.485948
1136.979836,-4145.153275,-8216.285956,612.876398
1136.980149,-4219.173869,-8142.265362,919.314598
1136.980461,-3997.112087,-7994.224174,1072.533697
1136.980774,-3997.112087,-8660.409521,766.095498
1136.981086,-3478.967927,-8660.409521,1149.143247
1136.981399,-3182.885551,-8808.450710,766.095498
1136.981711,-3256.906145,-9326.594869,1225.752797
1136.982024,-3627.009116,-9178.553681,1455.581446
1136.982336,-2590.720797,-9622.677246,1762.019645
1136.982649,-2738.761985,-9030.512492,1302.362347
1136.982962,-2590.720797,-9326.594869,1762.019645
1136.983274,-3552.988522,-8512.368333,1532.190996
1136.983587,-2960.823768,-8882.471304,1149.143247
1136.983899,-3256.906145,-9252.574275,1302.362347
1136.984212,-3997.112087,-8882.471304,1149.143247
1136.984524,-4071.132681,-8216.285956,1532.190996
1136.984837,-4145.153275,-8660.409521,1378.971896
1136.985149,-3775.050304,-8734.430116,919.314598
1136.985462,-3256.906145,-8512.368333,612.876398
1136.985774,-3775.050304,-8660.409521,1302.362347
1136.986087,-3775.050304,-8586.388927,1455.581446
1136.986400,-3330.926739,-9178.553681,1532.190996
1136.986712,-3330.926739,-9178.553681,1608.800546
1136.987025,-3108.864956,-9326.594869,1455.581446
1136.987337,-3330.926739,-9548.656652,1762.019645
1136.987650,-2886.803174,-9326.594869,1608.800546
1136.987962,-2664.741391,-9326.594869,1225.752797
1136.988275,-1924.535449,-9474.636058,2298.286494
1136.988587,-2368.659014,-8956.491898,1915.238745
1136.988900,-2368.659014,-9030.512492,1762.019645
1136.989213,-2442.679609,-8808.450710,1838.629195
1136.989525,-1850.514855,-9030.512492,1532.190996
1136.989838,-2220.617826,-9252.574275,1685.410096
1136.990150,-2368.659014,-9030.512492,1762.019645
1136.990463,-2516.700203,-9104.533087,1685.410096
1136.990775,-2516.700203,-8956.491898,1608.800546
1136.991088,-2442.679609,-9400.615463,1838.629195
1136.991400,-2812.782580,-9252.574275,1378.971896
1136.991713,-2960.823768,-8882.471304,1149.143247
1136.992026,-2960.823768,-9178.553681,1225.752797
1136.992338,-3108.864956,-8734.430116,1378.971896
1136.992651,-2886.803174,-8734.430116,1455.581446
1136.992963,-3034.844362,-8808.450710,1685.410096
1136.993276,-2960.823768,-8734.430116,1608.800546
1136.993588,-3404.947333,-8660.409521,1608.800546
1136.993901,-3256.906145,-8586.388927,1455.581446
1136.994213,-3108.864956,-8586.388927,1378.971896
1136.994526,-3552.988522,-8512.368333,1072.533697
1136.994838,-3849.070898,-8734.430116,1225.752797
1136.995151,-3627.009116,-8364.327145,1608.800546
1136.995464,-3923.091493,-8734.430116,1225.752797
1136.995776,-4367.215058,-8586.388927,1072.533697
1136.996089,-3923.091493,-8882.471304,1302.362347
1136.996401,-4071.132681,-8956.491898,1149.143247
1136.996714,-3849.070898,-9400.615463,1378.971896
1136.997026,-3627.009116,-9030.512492,1225.752797
1136.997339,-3256.906145,-8808.450710,1302.362347
1136.997651,-3701.029710,-8882.471304,1225.752797
1136.997964,-3552.988522,-8660.409521,1378.971896
1136.998277,-3330.926739,-8808.450710,919.314598
1136.998589,-3256.906145,-8956.491898,842.705048
1136.998902,-3627.009116,-8734.430116,995.924147
1136.999214,-3923.091493,-8808.450710,995.924147
1136.999527,-3775.050304,-8882.471304,995.924147
1136.999839,-3627.009116,-9252.574275,919.314598
1137.000152,-3923.091493,-9104.533087,842.705048
1137.000464,-4219.173869,-8660.409521,459.657299
1137.000777,-4071.132681,-8882.471304,459.657299
1137.001090,-3997.112087,-8734.430116,459.657299
1137.001402,-3849.070898,-8660.409521,383.047749
1137.001715,-3923.091493,-8882.471304,612.876398
1137.002027,-3849.070898,-8512.368333,1608.800546
1137.002340,-3330.926739,-8882.471304,842.705048
1137.002652,-3108.864956,-8808.450710,536.266849
1137.002965,-2960.823768,-9104.533087,689.485948
1137.003277,-3182.885551,-8882.471304,919.314598
1137.003590,-2886.803174,-9104.533087,919.314598
1137.003902,-2664.741391,-9252.574275,766.095498
1137.004215,-2738.761985,-9252.574275,842.705048
1137.004528,-3182.885551,-8808.450710,766.095498
1137.004840,-2960.823768,-8512.368333,1149.143247
1137.005153,-2590.720797,-8956.491898,766.095498
1137.005465,-2368.659014,-9400.615463,995.924147
1137.005778,-2738.761985,-9178.553681,1072.533697
1137.006090,-3108.864956,-8956.491898,995.924147
1137.006403,-3256.906145,-9178.553681,1072.533697
1137.006715,-3034.844362,-9030.512492,919.314598
1137.007028,-3034.844362,-8734.430116,1072.533697
1137.007341,-2960.823768,-8734.430116,919.314598
1137.007653,-3330.926739,-8956.491898,689.485948
1137.007966,-2738.761985,-9030.512492,919.314598
1137.008278,-2812.782580,-9252.574275,1302.362347
1137.008591,-2812.782580,-9400.615463,1762.019645
1137.008903,-2886.803174,-9400.615463,1685.410096
1137.009216,-3034.844362,-9400.615463,1685.410096
1137.009528,-3108.864956,-8882.471304,1608.800546
1137.009841,-3108.864956,-8956.491898,1149.143247
1137.010154,-3182.885551,-8734.430116,1072.533697
1137.010466,-3552.988522,-8512.368333,1072.533697
1137.010779,-3849.070898,-8364.327145,1072.533697
1137.011091,-4219.173869,-8290.306550,919.314598
1137.011404,-4219.173869,-8438.347739,1225.752797
1137.011716,-4293.194464,-8364.327145,1302.362347
1137.012029,-4219.173869,-8216.285956,1225.752797
1137.012341,-4663.297435,-7846.182985,995.924147
1137.012654,-4293.194464,-8068.244768,1608.800546
1137.012966,-3923.091493,-8364.327145,1455.581446
1137.013279,-3849.070898,-8586.388927,1455.581446
1137.013592,-3701.029710,-8586.388927,1072.533697
1137.013904,-3182.885551,-8512.368333,995.924147
1137.014217,-3330.926739,-8142.265362,1072.533697
1137.014529,-3182.885551,-8364.327145,1302.362347
1137.014842,-2664.741391,-8734.430116,2145.067394
1137.015154,-2516.700203,-8956.491898,1838.629195
1137.015467,-3256.906145,-8734.430116,1838.629195
1137.015779,-3330.926739,-8882.471304,1915.238745
1137.016092,-3552.988522,-8586.388927,1225.752797
1137.016405,-3404.947333,-8586.388927,1072.533697
1137.016717,-3478.967927,-8364.327145,1302.362347
1137.017030,-3701.029710,-8364.327145,1378.971896
1137.017342,-3997.112087,-8512.368333,1302.362347
1137.017655,-3701.029710,-8586.388927,1149.143247
1137.017967,-3849.070898,-8882.471304,1072.533697
1137.018280,-3923.091493,-8882.471304,919.314598
1137.018592,-3627.009116,-8808.450710,995.924147
1137.018905,-3552.988522,-8586.388927,842.705048
1137.019218,-3849.070898,-8512.368333,1608.800546
1137.019530,-4071.132681,-8956.491898,1072.533697
1137.019843,-3923.091493,-8364.327145,229.828649
1137.020155,-3849.070898,-8660.409521,229.828649
1137.020468,-4071.132681,-8956.491898,229.828649
1137.020780,-4219.173869,-8660.409521,459.657299
1137.021093,-4663.297435,-8660.409521,689.485948
1137.021405,-4145.153275,-8734.430116,1302.362347
1137.021718,-3923.091493,-9104.533087,1072.533697
1137.022030,-3997.112087,-8438.347739,76.609550
1137.022343,-3404.947333,-8364.327145,229.828649
1137.022656,-3552.988522,-9030.512492,229.828649
1137.022968,-3627.009116,-9252.574275,229.828649
1137.023281,-3404.947333,-9104.533087,459.657299
1137.023593,-3256.906145,-9326.594869,306.438199
1137.023906,-3330.926739,-8956.491898,459.657299
1137.024218,-3478.967927,-9252.574275,536.266849
1137.024531,-3701.029710,-8512.368333,229.828649
1137.024843,-3775.050304,-9030.512492,306.438199
1137.025156,-4071.132681,-8734.430116,0.000000
1137.025469,-4441.235652,-8586.388927,-306.438199
1137.025781,-4219.173869,-8290.306550,-459.657299
1137.026094,-4293.194464,-8660.409521,-229.828649
1137.026406,-4663.297435,-7920.203579,0.000000
1137.026719,-4811.338623,-8364.327145,-153.219100
1137.027031,-5033.400406,-8142.265362,-153.219100
1137.027344,-4293.194464,-9030.512492,-459.657299
1137.027656,-4589.276840,-8808.450710,-459.657299
1137.027969,-4441.235652,-8660.409521,-612.876398
1137.028282,-4515.256246,-8734.430116,0.000000
1137.028594,-4367.215058,-8956.491898,76.609550
1137.028907,-4145.153275,-8956.491898,-459.657299
1137.029219,-3775.050304,-9030.512492,76.609550
1137.029532,-4145.153275,-8956.491898,76.609550
1137.029844,-4515.256246,-8512.368333,0.000000
1137.030157,-4145.153275,-8586.388927,0.000000
1137.030469,-3997.112087,-8512.368333,0.000000
1137.030782,-4293.194464,-8438.347739,306.438199
1137.031094,-4071.132681,-8364.327145,-153.219100
1137.031407,-3627.009116,-8512.368333,0.000000
1137.031720,-3775.050304,-8660.409521,306.438199
1137.032032,-3997.112087,-8660.409521,0.000000
1137.032345,-3997.112087,-8808.450710,383.047749
1137.032657,-3923.091493,-8808.450710,459.657299
1137.032970,-3775.050304,-9326.594869,383.047749
1137.033282,-3552.988522,-9104.533087,536.266849
1137.033595,-3108.864956,-8882.471304,612.876398
1137.033907,-2886.803174,-9474.636058,383.047749
1137.034220,-2960.823768,-9104.533087,612.876398
1137.034533,-2960.823768,-8660.409521,842.705048
1137.034845,-3034.844362,-9104.533087,995.924147
1137.035158,-3034.844362,-8882.471304,919.314598
1137.035470,-3404.947333,-9030.512492,842.705048
1137.035783,-3404.947333,-8956.491898,612.876398
1137.036095,-3849.070898,-8808.450710,1378.971896
1137.036408,-3701.029710,-8882.471304,1149.143247
1137.036720,-3701.029710,-8734.430116,1302.362347
1137.037033,-3849.070898,-8808.450710,842.705048
1137.037346,-3775.050304,-8882.471304,919.314598
1137.037658,-3923.091493,-8882.471304,1225.752797
1137.037971,-3849.070898,-9104.533087,1378.971896
1137.038283,-3775.050304,-8956.491898,1149.143247
1137.038596,-3775.050304,-8882.471304,1915.238745
1137.038908,-3775.050304,-8808.450710,1302.362347
1137.039221,-3775.050304,-8364.327145,1455.581446
1137.039533,-3552.988522,-8586.388927,1378.971896
1137.039846,-3552.988522,-8364.327145,1532.190996
1137.040158,-3849.070898,-8586.388927,1378.971896
1137.040471,-3775.050304,-8438.347739,1455.581446
1137.040784,-3627.009116,-8586.388927,1378.971896
1137.041096,-3478.967927,-8512.368333,2145.067394
1137.041409,-3775.050304,-8512.368333,1608.800546
1137.041721,-4589.276840,-8364.327145,2068.457845
1137.042034,-3923.091493,-7846.182985,1072.533697
1137.042346,-4145.153275,-8364.327145,1072.533697
1137.042659,-4071.132681,-8512.368333,995.924147
1137.042971,-4219.173869,-8438.347739,1072.533697
1137.043284,-4219.173869,-8512.368333,1149.143247
1137.043597,-4367.215058,-8512.368333,1762.019645
1137.043909,-4145.153275,-8660.409521,1378.971896
1137.044222,-3775.050304,-8586.388927,766.095498
1137.044534,-3923.091493,-8808.450710,459.657299
1137.044847,-3997.112087,-8438.347739,689.485948
1137.045159,-3701.029710,-8660.409521,459.657299
1137.045472,-3997.112087,-8512.368333,689.485948
1137.045784,-4071.132681,-8586.388927,919.314598
1137.046097,-4219.173869,-8216.285956,612.876398
1137.046410,-4219.173869,-8808.450710,459.657299
1137.046722,-4071.132681,-9030.512492,459.657299
1137.047035,-4219.173869,-8660.409521,306.438199
1137.047347,-4293.194464,-8660.409521,76.609550
1137.047660,-4145.153275,-8956.491898,383.047749
1137.047972,-4071.132681,-8956.491898,0.000000
1137.048285,-3997.112087,-8660.409521,0.000000
1137.048597,-3849.070898,-8956.491898,153.219100
1137.048910,-3923.091493,-8586.388927,153.219100
1137.049222,-3997.112087,-8882.471304,153.219100
1137.049535,-3627.009116,-9326.594869,229.828649
1137.049848,-3849.070898,-8882.471304,-306.438199
1137.050160,-3775.050304,-9178.553681,153.219100
1137.050473,-3627.009116,-9030.512492,0.000000
1137.050785,-3478.967927,-9104.533087,-383.047749
1137.051098,-3849.070898,-8956.491898,0.000000
1137.051410,-3997.112087,-8216.285956,0.000000
1137.051723,-3478.967927,-8734.430116,0.000000
1137.052035,-4145.153275,-9178.553681,0.000000
1137.052348,-4219.173869,-8512.368333,0.000000
1137.052661,-3404.947333,-8882.471304,0.000000
1137.052973,-3701.029710,-8882.471304,-229.828649
1137.053286,-3701.029710,-8734.430116,-306.438199
1137.053598,-3775.050304,-8438.347739,383.047749
1137.053911,-3997.112087,-8438.347739,229.828649
1137.054223,-4145.153275,-8956.491898,306.438199
1137.054536,-3775.050304,-8808.450710,-229.828649
1137.054848,-3478.967927,-8882.471304,0.000000
1137.055161,-4145.153275,-8808.450710,459.657299
1137.055474,-4293.194464,-8364.327145,536.266849
1137.055786,-4293.194464,-8808.450710,689.485948
1137.056099,-3997.112087,-8882.471304,0.000000
1137.056411,-3849.070898,-8882.471304,0.000000
1137.056724,-3552.988522,-9030.512492,0.000000
1137.057036,-3997.112087,-8882.471304,689.485948
1137.057349,-4219.173869,-8882.471304,1149.143247
1137.057661,-3627.009116,-8734.430116,1225.752797
1137.057974,-4219.173869,-8142.265362,995.924147
1137.058286,-3775.050304,-9030.512492,919.314598
1137.058599,-3997.112087,-8364.327145,536.266849
1137.058912,-3701.029710,-8438.347739,842.705048
1137.059224,-4219.173869,-8290.306550,1149.143247
1137.059537,-4441.235652,-8290.306550,1532.190996
1137.059849,-4145.153275,-8438.347739,1149.143247
1137.060162,-3775.050304,-8660.409521,1072.533697
1137.060474,-3701.029710,-8660.409521,1302.362347
1137.060787,-3849.070898,-8364.327145,1685.410096
1137.061099,-3775.050304,-8808.450710,1762.019645
1137.061412,-3552.988522,-8956.491898,1762.019645
1137.061725,-3552.988522,-8734.430116,1302.362347
1137.062037,-3552.988522,-8586.388927,1378.971896
1137.062350,-3478.967927,-8808.450710,1608.800546
1137.062662,-3256.906145,-8882.471304,1532.190996
1137.062975,-2442.679609,-8956.491898,1532.190996
1137.063287,-3256.906145,-8734.430116,1685.410096
1137.063600,-3775.050304,-8734.430116,1685.410096
1137.063912,-3923.091493,-8586.388927,1072.533697
1137.064225,-3775.050304,-8290.306550,995.924147
1137.064538,-3552.988522,-8438.347739,995.924147
1137.064850,-3775.050304,-8364.327145,612.876398
1137.065163,-3701.029710,-8512.368333,459.657299
1137.065475,-3478.967927,-8586.388927,842.705048
1137.065788,-2960.823768,-8808.450710,229.828649
1137.066100,-3849.070898,-8438.347739,919.314598
1137.066413,-3701.029710,-8734.430116,842.705048
1137.066725,-2812.782580,-9178.553681,536.266849
1137.067038,-2960.823768,-9474.636058,459.657299
1137.067350,-3256.906145,-9548.656652,1072.533697
1137.067663,-3256.906145,-8808.450710,1838.629195
1137.067976,-3182.885551,-8586.388927,1532.190996
1137.068288,-3849.070898,-9104.533087,1455.581446
1137.068601,-3478.967927,-8882.471304,383.047749
1137.068913,-3849.070898,-8512.368333,153.219100
1137.069226,-4515.256246,-8586.388927,0.000000
1137.069538,-4589.276840,-8438.347739,536.266849
1137.069851,-4071.132681,-8438.347739,76.609550
1137.070163,-4589.276840,-8512.368333,0.000000
1137.070476,-4367.215058,-8216.285956,-383.047749
1137.070788,-3849.070898,-7772.162391,0.000000
1137.071101,-4071.132681,-7994.224174,459.657299
1137.071413,-4145.153275,-8660.409521,459.657299
1137.071726,-3552.988522,-9030.512492,459.657299
1137.072038,-3627.009116,-9104.533087,689.485948
1137.072351,-4071.132681,-9252.574275,689.485948
1137.072663,-3849.070898,-9252.574275,842.705048
1137.072976,-3478.967927,-9104.533087,383.047749
1137.073288,-4293.194464,-9178.553681,689.485948
1137.073601,-4441.235652,-8512.368333,689.485948
1137.073913,-4219.173869,-8216.285956,0.000000
1137.074226,-3923.091493,-8808.450710,0.000000
1137.074538,-4071.132681,-8660.409521,0.000000
1137.074851,-3849.070898,-8290.306550,383.047749
1137.075163,-4367.215058,-8586.388927,153.219100
1137.075476,-3478.967927,-8216.285956,689.485948
1137.075788,-3256.906145,-8364.327145,153.219100
1137.076101,-3701.029710,-8808.450710,536.266849
1137.076413,-3775.050304,-8586.388927,383.047749
1137.076726,-3552.988522,-9252.574275,536.266849
1137.077038,-3627.009116,-8956.491898,459.657299
1137.077351,-4441.235652,-8660.409521,842.705048
1137.077663,-4811.338623,-8882.471304,766.095498
1137.077976,-4515.256246,-8586.388927,1149.143247
1137.078288,-4293.194464,-8808.450710,-306.438199
1137.078601,-5033.400406,-8142.265362,76.609550
1137.078913,-4959.379811,-8068.244768,153.219100
1137.079226,-5255.462188,-7772.162391,459.657299
1137.079538,-5477.523971,-7772.162391,153.219100
1137.079851,-4885.359217,-8068.244768,76.609550
1137.080163,-5403.503377,-7846.182985,0.000000
1137.080476,-5329.482782,-7772.162391,0.000000
1137.080788,-4811.338623,-8290.306550,383.047749
1137.081101,-4515.256246,-8364.327145,306.438199
1137.081413,-4367.215058,-8660.409521,689.485948
1137.081726,-4293.194464,-8956.491898,766.095498
1137.082038,-3849.070898,-8956.491898,383.047749
1137.082351,-3627.009116,-9030.512492,153.219100
1137.082663,-3627.009116,-9178.553681,1149.143247
1137.082976,-3330.926739,-8956.491898,1072.533697
1137.083288,-3775.050304,-8956.491898,766.095498
1137.083601,-3330.926739,-9252.574275,842.705048
1137.083913,-3330.926739,-9178.553681,612.876398
1137.084226,-3478.967927,-8956.491898,536.266849
1137.084538,-3478.967927,-9030.512492,229.828649
1137.084851,-3404.947333,-9104.533087,459.657299
1137.085163,-3849.070898,-8882.471304,459.657299
1137.085476,-3701.029710,-9030.512492,0.000000
1137.085788,-3997.112087,-8808.450710,536.266849
1137.086101,-3627.009116,-8882.471304,306.438199
1137.086413,-3627.009116,-9104.533087,459.657299
1137.086726,-3478.967927,-9030.512492,383.047749
1137.087038,-3552.988522,-8956.491898,842.705048
1137.087351,-2960.823768,-8660.409521,1378.971896
1137.087663,-2960.823768,-8956.491898,1455.581446
1137.087976,-3404.947333,-8808.450710,1149.143247
1137.088288,-3627.009116,-8734.430116,612.876398
1137.088601,-3627.009116,-8956.491898,842.705048
1137.088913,-3478.967927,-8808.450710,995.924147
1137.089226,-3775.050304,-8586.388927,766.095498
1137.089538,-3849.070898,-8808.450710,1455.581446
1137.089851,-3627.009116,-8660.409521,1072.533697
1137.090163,-3849.070898,-8882.471304,1762.019645
1137.090476,-4145.153275,-8512.368333,689.485948
1137.090788,-4145.153275,-8734.430116,1149.143247
1137.091101,-3923.091493,-8808.450710,919.314598
1137.091413,-3701.029710,-8808.450710,1149.143247
1137.091726,-3552.988522,-8660.409521,1225.752797
1137.092038,-3552.988522,-8808.450710,1455.581446
1137.092351,-3404.947333,-8142.265362,1378.971896
1137.092663,-3330.926739,-8586.388927,842.705048
1137.092976,-3404.947333,-8216.285956,1455.581446
1137.093288,-3256.906145,-8808.450710,919.314598
1137.093601,-3478.967927,-8882.471304,1225.752797
1137.093913,-3627.009116,-8586.388927,1378.971896
1137.094226,-3627.009116,-8586.388927,1149.143247
1137.094538,-3552.988522,-8734.430116,1378.971896
1137.094851,-3775.050304,-8512.368333,1378.971896
1137.095163,-3849.070898,-8956.491898,919.314598
1137.095476,-4293.194464,-8660.409521,919.314598
1137.095788,-4219.173869,-8734.430116,536.266849
1137.096101,-4515.256246,-8438.347739,842.705048
1137.096413,-4589.276840,-8512.368333,919.314598
1137.096726,-4663.297435,-8586.388927,842.705048
1137.097038,-4811.338623,-8882.471304,76.609550
1137.097350,-4515.256246,-8660.409521,-229.828649
1137.097663,-4737.318029,-8216.285956,306.438199
1137.097975,-4737.318029,-8142.265362,153.219100
1137.098288,-4663.297435,-8364.327145,153.219100
1137.098600,-4737.318029,-8142.265362,306.438199
1137.098913,-4589.276840,-8068.244768,229.828649
1137.099225,-4293.194464,-8438.347739,0.000000
1137.099538,-4293.194464,-8364.327145,153.219100
1137.099850,-3775.050304,-8808.450710,766.095498
1137.100163,-3849.070898,-9252.574275,459.657299
1137.100475,-3923.091493,-8734.430116,689.485948
1137.100788,-3701.029710,-9030.512492,383.047749
1137.101100,-3627.009116,-8956.491898,76.609550
1137.101413,-3552.988522,-9030.512492,306.438199
1137.101725,-3552.988522,-9030.512492,76.609550
1137.102038,-3701.029710,-8660.409521,536.266849
1137.102350,-3330.926739,-8882.471304,153.219100
1137.102663,-3923.091493,-8586.388927,0.000000
1137.102975,-3923.091493,-8734.430116,0.000000
1137.103288,-3997.112087,-8808.450710,0.000000
1137.103600,-3849.070898,-8956.491898,0.000000
1137.103913,-3627.009116,-8956.491898,0.000000
1137.104225,-4071.132681,-8734.430116,0.000000
1137.104538,-3997.112087,-8438.347739,-306.438199
1137.104850,-3923.091493,-9030.512492,0.000000
1137.105163,-3256.906145,-9030.512492,-306.438199
1137.105475,-3256.906145,-9252.574275,0.000000
1137.105788,-3182.885551,-9400.615463,0.000000
1137.106100,-3478.967927,-9326.594869,153.219100
1137.106413,-3404.947333,-9474.636058,536.266849
1137.106725,-3182.885551,-9400.615463,689.485948
1137.107038,-3256.906145,-8956.491898,612.876398
1137.107350,-3478.967927,-8734.430116,459.657299
1137.107663,-3256.906145,-9104.533087,0.000000
1137.107975,-3108.864956,-8956.491898,76.609550
1137.108288,-3552.988522,-8956.491898,153.219100
1137.108600,-3478.967927,-8734.430116,459.657299
1137.108913,-3108.864956,-9030.512492,459.657299
1137.109225,-2516.700203,-9104.533087,1072.533697
1137.109538,-2368.659014,-9400.615463,1072.533697
1137.109850,-2812.782580,-9474.636058,2298.286494
1137.110163,-2664.741391,-9474.636058,1685.410096
1137.110475,-2368.659014,-9622.677246,1762.019645
1137.110788,-2072.576638,-9474.636058,1762.019645
1137.111100,-2146.597232,-9474.636058,1608.800546
1137.111413,-2442.679609,-9400.615463,2451.505594
1137.111725,-2368.659014,-8956.491898,1915.238745
1137.112038,-2590.720797,-8364.327145,2221.676944
1137.112350,-3404.947333,-8290.306550,2528.115143
1137.112663,-3923.091493,-8438.347739,2451.505594
1137.112975,-3627.009116,-8142.265362,1915.238745
1137.113288,-3627.009116,-8216.285956,1762.019645
1137.113600,-4441.235652,-7920.203579,1991.848295
1137.113913,-4737.318029,-7846.182985,1685.410096
1137.114225,-4515.256246,-7846.182985,2068.457845
1137.114538,-4071.132681,-7994.224174,1762.019645
1137.114850,-4145.153275,-8364.327145,1838.629195
1137.115163,-4367.215058,-8438.347739,2298.286494
1137.115475,-3923.091493,-9030.512492,2374.896044
1137.115788,-3701.029710,-9252.574275,2451.505594
1137.116100,-3701.029710,-9030.512492,2604.724693
1137.116413,-3330.926739,-8808.450710,2681.334243
1137.116725,-3330.926739,-8586.388927,2451.505594
1137.117038,-2812.782580,-8216.285956,2374.896044
1137.117350,-3108.864956,-7994.224174,1991.848295
1137.117663,-3182.885551,-8216.285956,2145.067394
1137.117975,-3478.967927,-8068.244768,2221.676944
1137.118288,-3330.926739,-8290.306550,2068.457845
1137.118600,-3627.009116,-8438.347739,1991.848295
1137.118913,-3701.029710,-8438.347739,2298.286494
1137.119225,-3775.050304,-8438.347739,1455.581446
1137.119538,-3478.967927,-8660.409521,1608.800546
1137.119850,-3330.926739,-9178.553681,766.095498
1137.120163,-3330.926739,-9030.512492,1455.581446
1137.120475,-3108.864956,-9030.512492,1455.581446
1137.120788,-2886.803174,-9326.594869,1455.581446
1137.121100,-2812.782580,-9474.636058,1455.581446
1137.121413,-2960.823768,-9548.656652,1455.581446
1137.121725,-2960.823768,-9030.512492,2068.457845
1137.122038,-2812.782580,-9178.553681,1532.190996
1137.122350,-3182.885551,-9104.533087,766.095498
1137.122663,-3182.885551,-8808.450710,919.314598
1137.122975,-3330.926739,-8438.347739,536.266849
1137.123288,-3404.947333,-8438.347739,229.828649
1137.123600,-3478.967927,-8512.368333,229.828649
1137.123913,-3627.009116,-9030.512492,153.219100
1137.124225,-3775.050304,-8956.491898,766.095498
1137.124538,-3256.906145,-9400.615463,1149.143247
1137.124850,-3034.844362,-9548.656652,612.876398
1137.125163,-2960.823768,-9696.697840,766.095498
1137.125475,-3182.885551,-9474.636058,919.314598
1137.125788,-3034.844362,-9400.615463,536.266849
1137.126100,-2516.700203,-9474.636058,842.705048
1137.126413,-2738.761985,-9178.553681,1149.143247
1137.126725,-2886.803174,-8882.471304,536.266849
1137.127038,-2960.823768,-9400.615463,306.438199
1137.127350,-3182.885551,-8808.450710,536.266849
1137.127663,-3256.906145,-8956.491898,612.876398
1137.127975,-3034.844362,-8808.450710,459.657299
1137.128288,-3330.926739,-8734.430116,383.047749
1137.128600,-3701.029710,-8364.327145,306.438199
1137.128913,-3701.029710,-8660.409521,842.705048
1137.129225,-3478.967927,-8512.368333,459.657299
1137.129538,-3701.029710,-8660.409521,-229.828649
1137.129850,-3923.091493,-9104.533087,0.000000
1137.130163,-3701.029710,-9104.533087,383.047749
1137.130475,-3404.947333,-9326.594869,689.485948
1137.130788,-3478.967927,-9400.615463,459.657299
1137.131100,-2590.720797,-9548.656652,1225.752797
1137.131413,-3108.864956,-9326.594869,1072.533697
1137.131725,-2812.782580,-9400.615463,766.095498
1137.132038,-3108.864956,-9252.574275,1149.143247
1137.132350,-3404.947333,-8808.450710,919.314598
1137.132663,-3256.906145,-8660.409521,919.314598
1137.132975,-3627.009116,-8660.409521,919.314598
1137.133288,-3701.029710,-8512.368333,1225.752797
1137.133600,-4145.153275,-8068.244768,689.485948
1137.133913,-4071.132681,-8216.285956,919.314598
1137.134225,-3849.070898,-8512.368333,1378.971896
1137.134538,-4145.153275,-8364.327145,1302.362347
1137.134850,-4367.215058,-8808.450710,1225.752797
1137.135163,-3997.112087,-8882.471304,1225.752797
1137.135475,-3627.009116,-9252.574275,1378.971896
1137.135788,-3627.009116,-9030.512492,1378.971896
1137.136100,-3330.926739,-9030.512492,2451.505594
1137.136413,-3034.844362,-8734.430116,1532.190996
1137.136725,-2812.782580,-9030.512492,1302.362347
1137.137038,-2812.782580,-9178.553681,1838.629195
1137.137350,-2516.700203,-8734.430116,1838.629195
1137.137662,-2590.720797,-9030.512492,2068.457845
1137.137975,-2516.700203,-9030.512492,2068.457845
1137.138287,-2664.741391,-8660.409521,2451.505594
1137.138600,-2738.761985,-8808.450710,2757.943793
1137.138912,-3108.864956,-8660.409521,1608.800546
1137.139225,-3034.844362,-8956.491898,2221.676944
1137.139537,-3330.926739,-8734.430116,1455.581446
1137.139850,-3330.926739,-8512.368333,1378.971896
1137.140162,-3701.029710,-8956.491898,1915.238745
1137.140475,-3552.988522,-8734.430116,1991.848295
1137.140787,-2812.782580,-8956.491898,1072.533697
1137.141100,-3330.926739,-9104.533087,1762.019645
1137.141412,-3552.988522,-8734.430116,1608.800546
1137.141725,-2368.659014,-9178.553681,1991.848295
1137.142037,-2442.679609,-9326.594869,1838.629195
1137.142350,-3034.844362,-8956.491898,2068.457845
1137.142662,-3182.885551,-8808.450710,1838.629195
1137.142975,-2738.761985,-8660.409521,2068.457845
1137.143287,-2960.823768,-8956.491898,1838.629195
1137.143600,-3034.844362,-8512.368333,1149.143247
1137.143912,-2516.700203,-8512.368333,1608.800546
1137.144225,-3478.967927,-8882.471304,1532.190996
1137.144537,-3997.112087,-8586.388927,2298.286494
1137.144850,-3849.070898,-8512.368333,1838.629195
1137.145162,-3627.009116,-8364.327145,459.657299
1137.145475,-3627.009116,-8660.409521,459.657299
1137.145787,-4219.173869,-8512.368333,383.047749
1137.146100,-3775.050304,-8290.306550,459.657299
1137.146412,-3330.926739,-8882.471304,766.095498
1137.146725,-3552.988522,-8882.471304,1302.362347
1137.147037,-3627.009116,-8734.430116,1302.362347
1137.147350,-3997.112087,-9104.533087,1072.533697
1137.147662,-3775.050304,-9178.553681,919.314598
1137.147975,-3478.967927,-8586.388927,153.219100
1137.148287,-3182.885551,-8734.430116,766.095498
1137.148600,-3701.029710,-8364.327145,153.219100
1137.148912,-3997.112087,-8660.409521,306.438199
1137.149225,-3849.070898,-8808.450710,383.047749
1137.149537,-3849.070898,-9252.574275,536.266849
1137.149850,-4219.173869,-9178.553681,536.266849
1137.150162,-4071.132681,-9178.553681,383.047749
1137.150475,-3775.050304,-8882.471304,0.000000
1137.150787,-3182.885551,-8660.409521,229.828649
1137.151100,-2812.782580,-9030.512492,0.000000
1137.151412,-2812.782580,-9178.553681,766.095498
1137.151725,-3330.926739,-9252.574275,1072.533697
1137.152037,-2960.823768,-9770.718434,1608.800546
1137.152350,-2812.782580,-9844.739029,1532.190996
1137.152662,-3182.885551,-9400.615463,1838.629195
1137.152975,-3701.029710,-8808.450710,1378.971896
1137.153287,-4071.132681,-8068.244768,1225.752797
1137.153600,-3849.070898,-8438.347739,1072.533697
1137.153912,-4515.256246,-8290.306550,383.047749
1137.154225,-3775.050304,-8142.265362,459.657299
1137.154537,-3923.091493,-8438.347739,459.657299
1137.154850,-4293.194464,-8734.430116,919.314598
1137.155162,-4219.173869,-8956.491898,1302.362347
1137.155475,-3701.029710,-8808.450710,1225.752797
1137.155787,-3182.885551,-8660.409521,842.705048
1137.156100,-2738.761985,-9030.512492,1149.143247
1137.156412,-2368.659014,-8882.471304,766.095498
1137.156725,-2664.741391,-9252.574275,1685.410096
1137.157037,-3182.885551,-9326.594869,2451.505594
1137.157350,-2664.741391,-9326.594869,2374.896044
1137.157662,-3330.926739,-9474.636058,2528.115143
1137.157975,-3478.967927,-9178.553681,1838.629195
1137.158287,-3775.050304,-8438.347739,1225.752797
1137.158600,-3701.029710,-8660.409521,842.705048
1137.158912,-4071.132681,-8216.285956,229.828649
1137.159225,-4441.235652,-7994.224174,536.266849
1137.159537,-3923.091493,-7846.182985,919.314598
1137.159850,-3478.967927,-8290.306550,536.266849
1137.160162,-3404.947333,-8438.347739,1149.143247
