#time,accel_x,accel_y,accel_z
601.234069,-3552.988522,-8882.471304,842.705048
601.234382,-3701.029710,-8808.450710,919.314598
601.234694,-3923.091493,-8586.388927,842.705048
601.235007,-3849.070898,-8586.388927,842.705048
601.235320,-3775.050304,-8438.347739,1149.143247
601.235632,-3404.947333,-8586.388927,1072.533697
601.235945,-3627.009116,-8956.491898,919.314598
601.236258,-3478.967927,-8734.430116,842.705048
601.236570,-3701.029710,-8808.450710,995.924147
601.236883,-3775.050304,-8882.471304,919.314598
601.237196,-3701.029710,-8364.327145,536.266849
601.237508,-3552.988522,-8512.368333,842.705048
601.237821,-3330.926739,-8808.450710,536.266849
601.238134,-3404.947333,-8660.409521,1149.143247
601.238446,-3701.029710,-8882.471304,995.924147
601.238759,-3552.988522,-8956.491898,919.314598
601.239072,-3775.050304,-8808.450710,1072.533697
601.239384,-3627.009116,-8882.471304,995.924147
601.239697,-3849.070898,-8734.430116,1302.362347
601.240010,-3404.947333,-8734.430116,1072.533697
601.240322,-3775.050304,-8660.409521,689.485948
601.240635,-3552.988522,-8956.491898,689.485948
601.240948,-3775.050304,-8956.491898,842.705048
601.241260,-3775.050304,-8808.450710,995.924147
601.241573,-3701.029710,-8882.471304,536.266849
601.241885,-3775.050304,-8660.409521,1072.533697
601.242198,-3330.926739,-8956.491898,1072.533697
601.242511,-3552.988522,-8438.347739,1149.143247
601.242823,-3404.947333,-8808.450710,1608.800546
601.243136,-3627.009116,-8882.471304,766.095498
601.243449,-3627.009116,-9104.533087,919.314598
601.243761,-3627.009116,-8956.491898,995.924147
601.244074,-3701.029710,-8882.471304,842.705048
601.244387,-3627.009116,-8586.388927,306.438199
601.244699,-3775.050304,-8734.430116,1302.362347
601.245012,-3478.967927,-8216.285956,919.314598
601.245325,-3552.988522,-8660.409521,995.924147
601.245637,-3627.009116,-8808.450710,766.095498
601.245950,-3627.009116,-8956.491898,919.314598
601.246263,-3701.029710,-8882.471304,995.924147
601.246575,-3478.967927,-8882.471304,842.705048
601.246888,-3701.029710,-8660.409521,766.095498
601.247201,-3330.926739,-9030.512492,1685.410096
601.247513,-3627.009116,-8734.430116,1225.752797
601.247826,-3552.988522,-8660.409521,1072.533697
601.248139,-3775.050304,-8734.430116,995.924147
601.248451,-3552.988522,-8734.430116,689.485948
601.248764,-3627.009116,-8808.450710,919.314598
601.249077,-3552.988522,-8808.450710,995.924147
601.249389,-3627.009116,-8586.388927,1072.533697
601.249702,-3330.926739,-8660.409521,766.095498
601.250014,-3478.967927,-8660.409521,919.314598
601.250327,-3923.091493,-8660.409521,1072.533697
601.250640,-3627.009116,-8882.471304,1225.752797
601.250952,-3478.967927,-8956.491898,919.314598
601.251265,-3701.029710,-8882.471304,1225.752797
601.251578,-3627.009116,-8808.450710,1302.362347
601.251890,-3627.009116,-8216.285956,1149.143247
601.252203,-3775.050304,-8068.244768,842.705048
601.252516,-3182.885551,-8734.430116,995.924147
601.252828,-3627.009116,-8734.430116,842.705048
601.253141,-3627.009116,-8956.491898,842.705048
601.253454,-3552.988522,-8734.430116,1072.533697
601.253766,-3849.070898,-9030.512492,995.924147
601.254079,-3552.988522,-8660.409521,1225.752797
601.254392,-3775.050304,-8808.450710,995.924147
601.254704,-3478.967927,-8882.471304,1455.581446
601.255017,-3478.967927,-8734.430116,766.095498
601.255330,-3701.029710,-8808.450710,919.314598
601.255642,-3775.050304,-8734.430116,919.314598
601.255955,-3478.967927,-8956.491898,919.314598
601.256268,-3552.988522,-8956.491898,689.485948
601.256580,-3404.947333,-8586.388927,766.095498
601.256893,-3701.029710,-8586.388927,536.266849
601.257205,-3701.029710,-8586.388927,766.095498
601.257518,-3775.050304,-8734.430116,459.657299
601.257831,-3627.009116,-8808.450710,995.924147
601.258143,-3552.988522,-8808.450710,995.924147
601.258456,-3404.947333,-8956.491898,919.314598
601.258769,-3182.885551,-8882.471304,1072.533697
601.259081,-2812.782580,-8808.450710,459.657299
601.259394,-3182.885551,-9104.533087,1225.752797
601.259707,-3701.029710,-9252.574275,1149.143247
601.260019,-3034.844362,-8882.471304,1685.410096
601.260332,-3182.885551,-9178.553681,1532.190996
601.260645,-3627.009116,-8956.491898,1302.362347
601.260957,-3701.029710,-8734.430116,766.095498
601.261270,-3330.926739,-8734.430116,536.266849
601.261583,-2960.823768,-8956.491898,689.485948
601.261895,-3404.947333,-8364.327145,1072.533697
601.262208,-4145.153275,-8512.368333,1991.848295
601.262521,-4071.132681,-8808.450710,1532.190996
601.262833,-3627.009116,-8882.471304,1072.533697
601.263146,-3775.050304,-9030.512492,689.485948
601.263459,-3923.091493,-8882.471304,536.266849
601.263771,-4145.153275,-8512.368333,919.314598
601.264084,-3627.009116,-8808.450710,1225.752797
601.264397,-2590.720797,-8882.471304,1225.752797
601.264709,-3034.844362,-8808.450710,919.314598
601.265022,-3404.947333,-9252.574275,1455.581446
601.265334,-3627.009116,-9030.512492,1762.019645
601.265647,-2738.761985,-9326.594869,1685.410096
601.265960,-2664.741391,-9474.636058,1378.971896
601.266272,-3627.009116,-9030.512492,1225.752797
601.266585,-3849.070898,-8660.409521,2068.457845
601.266898,-3108.864956,-8734.430116,1532.190996
601.267210,-2960.823768,-8882.471304,1149.143247
601.267523,-4071.132681,-8586.388927,1378.971896
601.267836,-4145.153275,-8364.327145,1149.143247
601.268148,-3849.070898,-8734.430116,995.924147
601.268461,-3627.009116,-8882.471304,1532.190996
601.268774,-3552.988522,-8586.388927,1378.971896
601.269086,-3404.947333,-8290.306550,1378.971896
601.269399,-3404.947333,-8734.430116,1685.410096
601.269712,-2960.823768,-9030.512492,1149.143247
601.270024,-1924.535449,-9252.574275,1378.971896
601.270337,-2294.638420,-9400.615463,1532.190996
601.270650,-2590.720797,-8956.491898,1685.410096
601.270962,-2072.576638,-8882.471304,1378.971896
601.271275,-1480.411884,-9770.718434,1608.800546
601.271587,-1776.494261,-9622.677246,1532.190996
601.271900,-1924.535449,-8808.450710,1532.190996
601.272213,-2220.617826,-9548.656652,2221.676944
601.272525,-2590.720797,-9400.615463,1915.238745
601.272838,-2516.700203,-9252.574275,1455.581446
601.273151,-2886.803174,-8956.491898,995.924147
601.273463,-3552.988522,-8734.430116,1455.581446
601.273776,-3552.988522,-9178.553681,995.924147
601.274089,-3552.988522,-8586.388927,1302.362347
601.274401,-3775.050304,-8290.306550,919.314598
601.274714,-4219.173869,-8660.409521,1302.362347
601.275027,-4071.132681,-8660.409521,995.924147
601.275339,-3849.070898,-8660.409521,612.876398
601.275652,-3552.988522,-8956.491898,919.314598
601.275964,-3182.885551,-9030.512492,1072.533697
601.276277,-3775.050304,-8290.306550,1302.362347
601.276590,-4071.132681,-8438.347739,1838.629195
601.276902,-3478.967927,-9030.512492,1762.019645
601.277215,-3552.988522,-8660.409521,1302.362347
601.277528,-3701.029710,-8956.491898,842.705048
601.277840,-4145.153275,-8586.388927,536.266849
601.278153,-3849.070898,-8512.368333,612.876398
601.278466,-3849.070898,-8734.430116,842.705048
601.278778,-3701.029710,-8956.491898,612.876398
601.279091,-4145.153275,-9030.512492,1455.581446
601.279404,-3552.988522,-8882.471304,766.095498
601.279716,-3849.070898,-9474.636058,612.876398
601.280029,-3552.988522,-9030.512492,766.095498
601.280342,-3478.967927,-9252.574275,1149.143247
601.280654,-3108.864956,-9400.615463,1072.533697
601.280967,-3478.967927,-8808.450710,1532.190996
601.281279,-3108.864956,-8512.368333,1225.752797
601.281592,-2738.761985,-8660.409521,1302.362347
601.281905,-3182.885551,-8512.368333,842.705048
601.282217,-3478.967927,-8734.430116,766.095498
601.282530,-3627.009116,-8808.450710,995.924147
601.282843,-3775.050304,-9030.512492,689.485948
601.283155,-3775.050304,-8808.450710,1072.533697
601.283468,-3701.029710,-8364.327145,459.657299
601.283781,-4145.153275,-8512.368333,919.314598
601.284093,-3849.070898,-8734.430116,689.485948
601.284406,-3701.029710,-8660.409521,689.485948
601.284719,-3701.029710,-9104.533087,919.314598
601.285031,-3330.926739,-9104.533087,1149.143247
601.285344,-3034.844362,-9178.553681,1149.143247
601.285656,-2960.823768,-9178.553681,1149.143247
601.285969,-3034.844362,-8586.388927,1149.143247
601.286282,-3108.864956,-8660.409521,1532.190996
601.286594,-2664.741391,-8882.471304,1455.581446
601.286907,-3108.864956,-8956.491898,995.924147
601.287220,-3108.864956,-8882.471304,995.924147
601.287532,-3330.926739,-8734.430116,1149.143247
601.287845,-3478.967927,-8512.368333,995.924147
601.288158,-3330.926739,-8586.388927,1225.752797
601.288470,-3404.947333,-8660.409521,919.314598
601.288783,-3849.070898,-8216.285956,1072.533697
601.289096,-3552.988522,-8734.430116,842.705048
601.289408,-3701.029710,-8734.430116,689.485948
601.289721,-3330.926739,-8956.491898,766.095498
601.290034,-3627.009116,-9104.533087,919.314598
601.290346,-3330.926739,-9178.553681,1072.533697
601.290659,-2812.782580,-9400.615463,1302.362347
601.290971,-2886.803174,-9252.574275,1225.752797
601.291284,-2738.761985,-9400.615463,766.095498
601.291597,-3330.926739,-8882.471304,1072.533697
601.291909,-2886.803174,-9252.574275,1225.752797
601.292222,-3108.864956,-8956.491898,995.924147
601.292535,-3330.926739,-8956.491898,1072.533697
601.292847,-3478.967927,-8882.471304,995.924147
601.293160,-4145.153275,-8364.327145,1991.848295
601.293473,-3775.050304,-8808.450710,1532.190996
601.293785,-4219.173869,-8364.327145,919.314598
601.294098,-4441.235652,-8364.327145,612.876398
601.294411,-4219.173869,-8364.327145,919.314598
601.294723,-4219.173869,-8364.327145,919.314598
601.295036,-4293.194464,-8586.388927,842.705048
601.295348,-4071.132681,-8808.450710,995.924147
601.295661,-4367.215058,-8438.347739,229.828649
601.295974,-4441.235652,-8512.368333,459.657299
601.296286,-4219.173869,-8290.306550,612.876398
601.296599,-4367.215058,-8660.409521,919.314598
601.296912,-4293.194464,-8808.450710,842.705048
601.297224,-4219.173869,-8586.388927,689.485948
601.297537,-4219.173869,-8438.347739,842.705048
601.297850,-4145.153275,-8438.347739,1072.533697
601.298162,-4367.215058,-8438.347739,536.266849
601.298475,-3627.009116,-8586.388927,459.657299
601.298788,-4145.153275,-8660.409521,995.924147
601.299100,-4219.173869,-8512.368333,612.876398
601.299413,-4293.194464,-8586.388927,383.047749
601.299726,-4145.153275,-8734.430116,76.609550
601.300038,-4071.132681,-8808.450710,76.609550
601.300351,-4071.132681,-8808.450710,229.828649
601.300663,-3701.029710,-8734.430116,383.047749
601.300976,-3627.009116,-9030.512492,612.876398
601.301289,-3627.009116,-8586.388927,76.609550
601.301601,-3701.029710,-9178.553681,153.219100
601.301914,-3404.947333,-9030.512492,229.828649
601.302227,-3627.009116,-8882.471304,229.828649
601.302539,-3701.029710,-8660.409521,689.485948
601.302852,-3701.029710,-8660.409521,229.828649
601.303165,-3256.906145,-9400.615463,153.219100
601.303477,-3701.029710,-8956.491898,0.000000
601.303790,-3552.988522,-8586.388927,76.609550
601.304103,-3849.070898,-8882.471304,229.828649
601.304415,-4071.132681,-9030.512492,76.609550
601.304728,-3775.050304,-8956.491898,229.828649
601.305040,-3552.988522,-9104.533087,0.000000
601.305353,-3701.029710,-9178.553681,306.438199
601.305666,-3701.029710,-9030.512492,0.000000
601.305978,-3627.009116,-8956.491898,459.657299
601.306291,-3404.947333,-9104.533087,689.485948
601.306604,-3404.947333,-9252.574275,383.047749
601.306916,-3701.029710,-9252.574275,229.828649
601.307229,-3849.070898,-8956.491898,306.438199
601.307542,-3627.009116,-8734.430116,153.219100
601.307854,-3701.029710,-8216.285956,689.485948
601.308167,-3330.926739,-8586.388927,459.657299
601.308480,-3627.009116,-8808.450710,919.314598
601.308792,-4293.194464,-8586.388927,459.657299
601.309105,-4219.173869,-8586.388927,306.438199
601.309418,-4293.194464,-8660.409521,153.219100
601.309730,-4441.235652,-8438.347739,229.828649
601.310043,-4441.235652,-8216.285956,76.609550
601.310355,-4145.153275,-8142.265362,459.657299
601.310668,-4219.173869,-8364.327145,612.876398
601.310981,-4145.153275,-8512.368333,306.438199
601.311293,-3997.112087,-8660.409521,689.485948
601.311606,-3627.009116,-8734.430116,842.705048
601.311919,-3701.029710,-8734.430116,995.924147
601.312231,-3404.947333,-8808.450710,1149.143247
601.312544,-3034.844362,-8586.388927,1302.362347
601.312857,-3478.967927,-8512.368333,1378.971896
601.313169,-3701.029710,-8586.388927,1225.752797
601.313482,-3997.112087,-8660.409521,1149.143247
601.313795,-3849.070898,-8734.430116,766.095498
601.314107,-3997.112087,-8882.471304,689.485948
601.314420,-4293.194464,-8438.347739,842.705048
601.314732,-4441.235652,-8882.471304,1302.362347
601.315045,-4219.173869,-7994.224174,919.314598
601.315358,-4293.194464,-8068.244768,766.095498
601.315670,-4219.173869,-8512.368333,1225.752797
601.315983,-4071.132681,-8512.368333,689.485948
601.316296,-3849.070898,-8586.388927,689.485948
601.316608,-4367.215058,-8586.388927,842.705048
601.316921,-4071.132681,-8438.347739,1149.143247
601.317234,-3256.906145,-8882.471304,1225.752797
601.317546,-3552.988522,-8956.491898,612.876398
601.317859,-3923.091493,-8290.306550,1149.143247
601.318172,-3552.988522,-8660.409521,919.314598
601.318484,-3330.926739,-9030.512492,766.095498
601.318797,-3849.070898,-8956.491898,919.314598
601.319110,-4293.194464,-8808.450710,766.095498
601.319422,-4367.215058,-8586.388927,919.314598
601.319735,-4145.153275,-8512.368333,842.705048
601.320047,-3849.070898,-8734.430116,306.438199
601.320360,-3478.967927,-8734.430116,-153.219100
601.320673,-4145.153275,-8956.491898,153.219100
601.320985,-4219.173869,-8882.471304,612.876398
601.321298,-3849.070898,-8660.409521,689.485948
601.321611,-3701.029710,-8660.409521,689.485948
601.321923,-3997.112087,-8734.430116,612.876398
601.322236,-3552.988522,-8512.368333,0.000000
601.322549,-2960.823768,-8660.409521,0.000000
601.322861,-3404.947333,-8734.430116,612.876398
601.323174,-3627.009116,-9030.512492,842.705048
601.323487,-3627.009116,-9104.533087,919.314598
601.323799,-3330.926739,-9252.574275,1072.533697
601.324112,-3404.947333,-9474.636058,689.485948
601.324424,-3775.050304,-9252.574275,766.095498
601.324737,-3997.112087,-8290.306550,153.219100
601.325050,-3552.988522,-8956.491898,0.000000
601.325362,-3627.009116,-8512.368333,306.438199
601.325675,-3775.050304,-8216.285956,76.609550
601.325988,-4145.153275,-8290.306550,536.266849
601.326300,-4145.153275,-8438.347739,153.219100
601.326613,-3997.112087,-8660.409521,306.438199
601.326926,-3775.050304,-8882.471304,612.876398
601.327238,-4145.153275,-8660.409521,459.657299
601.327551,-4219.173869,-8734.430116,919.314598
601.327864,-4145.153275,-8586.388927,536.266849
601.328176,-3627.009116,-8512.368333,306.438199
601.328489,-3701.029710,-8956.491898,306.438199
601.328802,-3404.947333,-8808.450710,689.485948
601.329114,-3330.926739,-9030.512492,995.924147
601.329427,-3849.070898,-8882.471304,1302.362347
601.329739,-3182.885551,-8882.471304,1225.752797
601.330052,-3330.926739,-8882.471304,612.876398
601.330365,-3552.988522,-8734.430116,995.924147
601.330677,-3923.091493,-8882.471304,612.876398
601.330990,-3997.112087,-8660.409521,459.657299
601.331303,-3849.070898,-8586.388927,612.876398
601.331615,-3701.029710,-9104.533087,766.095498
601.331928,-3701.029710,-9030.512492,995.924147
601.332241,-4219.173869,-8808.450710,1302.362347
601.332553,-4071.132681,-8586.388927,1685.410096
601.332866,-3034.844362,-9400.615463,612.876398
601.333179,-2886.803174,-8808.450710,459.657299
601.333491,-3108.864956,-8882.471304,612.876398
601.333804,-3478.967927,-8586.388927,1072.533697
601.334116,-3182.885551,-8512.368333,1838.629195
601.334429,-3108.864956,-8660.409521,2451.505594
601.334742,-3182.885551,-8660.409521,1532.190996
601.335054,-3849.070898,-8586.388927,383.047749
601.335367,-4441.235652,-8734.430116,766.095498
601.335680,-4145.153275,-8364.327145,842.705048
601.335992,-3478.967927,-8808.450710,536.266849
601.336305,-3997.112087,-8882.471304,459.657299
601.336618,-4441.235652,-8438.347739,766.095498
601.336930,-3849.070898,-8512.368333,459.657299
601.337243,-2738.761985,-8660.409521,229.828649
601.337556,-3108.864956,-8290.306550,842.705048
601.337868,-3923.091493,-8512.368333,995.924147
601.338181,-3330.926739,-8512.368333,919.314598
601.338494,-3330.926739,-9178.553681,612.876398
601.338806,-3627.009116,-8882.471304,1149.143247
601.339119,-3997.112087,-8586.388927,919.314598
601.339431,-3775.050304,-8660.409521,536.266849
601.339744,-4071.132681,-9030.512492,0.000000
601.340057,-3997.112087,-8364.327145,-153.219100
601.340369,-4293.194464,-8068.244768,-842.705048
601.340682,-4293.194464,-8956.491898,0.000000
601.340995,-4145.153275,-8734.430116,76.609550
601.341307,-3627.009116,-8438.347739,306.438199
601.341620,-3552.988522,-8882.471304,612.876398
601.341933,-4071.132681,-8660.409521,1378.971896
601.342245,-3627.009116,-8216.285956,536.266849
601.342558,-3552.988522,-8364.327145,459.657299
601.342871,-3701.029710,-8586.388927,0.000000
601.343183,-4145.153275,-8882.471304,229.828649
601.343496,-4441.235652,-8808.450710,383.047749
601.343808,-4663.297435,-9104.533087,0.000000
601.344121,-5033.400406,-9178.553681,153.219100
601.344434,-5255.462188,-8734.430116,-229.828649
601.344746,-5255.462188,-8586.388927,-229.828649
601.345059,-4959.379811,-9252.574275,-229.828649
601.345372,-4589.276840,-8290.306550,0.000000
601.345684,-4441.235652,-8364.327145,76.609550
601.345997,-4663.297435,-8438.347739,306.438199
601.346310,-4589.276840,-8364.327145,306.438199
601.346622,-4589.276840,-8216.285956,0.000000
601.346935,-4441.235652,-8586.388927,0.000000
601.347248,-4663.297435,-8290.306550,536.266849
601.347560,-4737.318029,-8438.347739,612.876398
601.347873,-4737.318029,-8290.306550,76.609550
601.348186,-4737.318029,-8586.388927,0.000000
601.348498,-4589.276840,-8438.347739,0.000000
601.348811,-4293.194464,-8808.450710,-153.219100
601.349123,-4441.235652,-8882.471304,0.000000
601.349436,-3775.050304,-8438.347739,0.000000
601.349749,-3330.926739,-8364.327145,459.657299
601.350061,-2812.782580,-8956.491898,766.095498
601.350374,-3330.926739,-8882.471304,919.314598
601.350687,-3034.844362,-9400.615463,842.705048
601.350999,-2960.823768,-9326.594869,842.705048
601.351312,-3182.885551,-9326.594869,766.095498
601.351625,-2590.720797,-9104.533087,1149.143247
601.351937,-2812.782580,-8882.471304,1072.533697
601.352250,-3108.864956,-9178.553681,1072.533697
601.352563,-3108.864956,-9030.512492,229.828649
601.352875,-3552.988522,-8660.409521,536.266849
601.353188,-3478.967927,-8882.471304,612.876398
601.353501,-3627.009116,-8586.388927,612.876398
601.353813,-3478.967927,-8660.409521,842.705048
601.354126,-3627.009116,-8808.450710,1072.533697
601.354438,-3404.947333,-8512.368333,1149.143247
601.354751,-3701.029710,-8290.306550,919.314598
601.355064,-3701.029710,-8808.450710,766.095498
601.355376,-3404.947333,-8808.450710,842.705048
601.355689,-3182.885551,-9178.553681,766.095498
601.356002,-3478.967927,-8956.491898,919.314598
601.356314,-3552.988522,-8882.471304,1072.533697
601.356627,-3256.906145,-9178.553681,1378.971896
601.356940,-3923.091493,-8882.471304,1532.190996
601.357252,-3775.050304,-9030.512492,1608.800546
601.357565,-3775.050304,-8882.471304,919.314598
601.357878,-3923.091493,-8882.471304,995.924147
601.358190,-3627.009116,-8586.388927,1072.533697
601.358503,-3997.112087,-8290.306550,1532.190996
601.358815,-4293.194464,-8586.388927,2145.067394
601.359128,-3849.070898,-8290.306550,1608.800546
601.359441,-3849.070898,-8290.306550,1225.752797
601.359753,-3849.070898,-8438.347739,383.047749
601.360066,-4293.194464,-8290.306550,612.876398
601.360379,-4071.132681,-8512.368333,766.095498
601.360691,-3997.112087,-8734.430116,995.924147
601.361004,-4145.153275,-8734.430116,1149.143247
601.361317,-3923.091493,-8882.471304,1762.019645
601.361629,-4219.173869,-9030.512492,1762.019645
601.361942,-3701.029710,-8808.450710,1455.581446
601.362255,-4071.132681,-8808.450710,766.095498
601.362567,-3997.112087,-8512.368333,919.314598
601.362880,-3923.091493,-8438.347739,919.314598
601.363193,-4145.153275,-8438.347739,1149.143247
601.363505,-4071.132681,-8438.347739,842.705048
601.363818,-4219.173869,-7994.224174,1072.533697
601.364130,-3923.091493,-8512.368333,919.314598
601.364443,-4219.173869,-8586.388927,766.095498
601.364756,-4071.132681,-8142.265362,383.047749
601.365068,-4071.132681,-8734.430116,383.047749
601.365381,-4071.132681,-8808.450710,612.876398
601.365694,-3997.112087,-8956.491898,766.095498
601.366006,-4145.153275,-8660.409521,689.485948
601.366319,-4145.153275,-8882.471304,1532.190996
601.366632,-3701.029710,-9178.553681,689.485948
601.366944,-3849.070898,-9178.553681,536.266849
601.367257,-3923.091493,-8882.471304,153.219100
601.367570,-3552.988522,-8808.450710,383.047749
601.367882,-3775.050304,-8734.430116,612.876398
601.368195,-3775.050304,-8586.388927,689.485948
601.368507,-3923.091493,-8660.409521,383.047749
601.368820,-3775.050304,-8808.450710,0.000000
601.369132,-3775.050304,-8290.306550,0.000000
601.369445,-3923.091493,-8808.450710,0.000000
601.369758,-4071.132681,-8364.327145,536.266849
601.370070,-3923.091493,-8882.471304,-153.219100
601.370383,-3849.070898,-9178.553681,229.828649
601.370695,-3775.050304,-8956.491898,0.000000
601.371008,-3923.091493,-8808.450710,0.000000
601.371320,-3701.029710,-8734.430116,0.000000
601.371633,-3775.050304,-8660.409521,153.219100
601.371945,-3552.988522,-8882.471304,919.314598
601.372258,-3552.988522,-8882.471304,689.485948
601.372570,-3330.926739,-9104.533087,76.609550
601.372883,-3478.967927,-8882.471304,536.266849
601.373196,-3478.967927,-9030.512492,306.438199
601.373508,-3849.070898,-8808.450710,0.000000
601.373821,-4145.153275,-8438.347739,76.609550
601.374133,-4219.173869,-8586.388927,0.000000
601.374446,-3552.988522,-9104.533087,76.609550
601.374758,-3997.112087,-8808.450710,229.828649
601.375071,-4441.235652,-8586.388927,459.657299
601.375383,-3997.112087,-8734.430116,536.266849
601.375696,-3923.091493,-8660.409521,383.047749
601.376009,-4293.194464,-8660.409521,306.438199
601.376321,-4071.132681,-8290.306550,689.485948
601.376634,-3701.029710,-8956.491898,919.314598
601.376946,-3330.926739,-8956.491898,612.876398
601.377259,-3997.112087,-8438.347739,612.876398
601.377571,-3997.112087,-8956.491898,1072.533697
601.377884,-3923.091493,-9030.512492,766.095498
601.378196,-4071.132681,-9104.533087,842.705048
601.378509,-4071.132681,-8956.491898,689.485948
601.378822,-3923.091493,-8660.409521,383.047749
601.379134,-3404.947333,-8808.450710,766.095498
601.379447,-3256.906145,-8882.471304,995.924147
601.379759,-3182.885551,-8438.347739,459.657299
601.380072,-3256.906145,-8956.491898,689.485948
601.380384,-3256.906145,-9178.553681,1072.533697
601.380697,-2886.803174,-9252.574275,1608.800546
601.381009,-2368.659014,-9474.636058,2298.286494
601.381322,-2442.679609,-9844.739029,1608.800546
601.381635,-2590.720797,-9474.636058,1455.581446
601.381947,-2294.638420,-9400.615463,1838.629195
601.382260,-1850.514855,-9474.636058,1762.019645
601.382572,-2146.597232,-9474.636058,2068.457845
601.382885,-2368.659014,-9252.574275,2145.067394
601.383197,-2368.659014,-9252.574275,2221.676944
601.383510,-2146.597232,-9178.553681,1762.019645
601.383822,-2738.761985,-8882.471304,2145.067394
601.384135,-3182.885551,-8586.388927,2681.334243
601.384448,-3701.029710,-8512.368333,2451.505594
601.384760,-3627.009116,-8586.388927,1762.019645
601.385073,-3849.070898,-8438.347739,1608.800546
601.385385,-3923.091493,-8364.327145,1532.190996
601.385698,-4071.132681,-8364.327145,1685.410096
601.386010,-3478.967927,-8364.327145,2298.286494
601.386323,-3923.091493,-8586.388927,2145.067394
601.386635,-3627.009116,-8512.368333,2145.067394
601.386948,-3404.947333,-8660.409521,1762.019645
601.387261,-3552.988522,-8660.409521,1915.238745
601.387573,-3330.926739,-8808.450710,1915.238745
601.387886,-3182.885551,-8882.471304,1991.848295
601.388198,-3330.926739,-8734.430116,2298.286494
601.388511,-3182.885551,-8586.388927,2145.067394
601.388823,-2664.741391,-8882.471304,1838.629195
601.389136,-3330.926739,-9030.512492,1838.629195
601.389448,-3552.988522,-8734.430116,1608.800546
601.389761,-3627.009116,-8586.388927,1762.019645
601.390074,-3701.029710,-8660.409521,1378.971896
601.390386,-3849.070898,-8512.368333,1149.143247
601.390699,-3923.091493,-8438.347739,1455.581446
601.391011,-4071.132681,-8586.388927,995.924147
601.391324,-3775.050304,-8660.409521,995.924147
601.391636,-3552.988522,-8586.388927,1149.143247
601.391949,-3552.988522,-8882.471304,1302.362347
601.392261,-3182.885551,-9104.533087,1225.752797
601.392574,-3256.906145,-9030.512492,1149.143247
601.392887,-2960.823768,-9178.553681,1149.143247
601.393199,-3256.906145,-9252.574275,1455.581446
601.393512,-2960.823768,-8438.347739,919.314598
601.393824,-3034.844362,-8438.347739,536.266849
601.394137,-3256.906145,-8808.450710,536.266849
601.394449,-3404.947333,-8808.450710,306.438199
601.394762,-3701.029710,-9178.553681,689.485948
601.395074,-3627.009116,-9030.512492,383.047749
601.395387,-3701.029710,-9030.512492,306.438199
601.395699,-3775.050304,-8882.471304,612.876398
601.396012,-3701.029710,-8956.491898,76.609550
601.396325,-3552.988522,-9030.512492,612.876398
601.396637,-2960.823768,-9326.594869,766.095498
601.396950,-3108.864956,-9030.512492,383.047749
601.397262,-3182.885551,-9030.512492,536.266849
601.397575,-2960.823768,-9400.615463,842.705048
601.397887,-2886.803174,-9400.615463,612.876398
601.398200,-2812.782580,-9400.615463,0.000000
601.398512,-2738.761985,-9474.636058,76.609550
601.398825,-3182.885551,-9030.512492,306.438199
601.399138,-2812.782580,-9400.615463,689.485948
601.399450,-3034.844362,-9104.533087,306.438199
601.399763,-3404.947333,-8882.471304,306.438199
601.400075,-3552.988522,-8734.430116,459.657299
601.400388,-3330.926739,-8438.347739,536.266849
601.400700,-3182.885551,-8586.388927,383.047749
601.401013,-3182.885551,-8956.491898,229.828649
601.401325,-3256.906145,-9326.594869,229.828649
601.401638,-3404.947333,-9252.574275,612.876398
601.401951,-3182.885551,-9400.615463,995.924147
601.402263,-3034.844362,-9400.615463,1302.362347
601.402576,-3256.906145,-9252.574275,995.924147
601.402888,-2960.823768,-9474.636058,919.314598
601.403201,-3256.906145,-8956.491898,919.314598
601.403513,-3404.947333,-9030.512492,1225.752797
601.403826,-3256.906145,-8956.491898,1762.019645
601.404138,-3256.906145,-9178.553681,1608.800546
601.404451,-3701.029710,-8956.491898,1762.019645
601.404764,-3552.988522,-9178.553681,1608.800546
601.405076,-3923.091493,-8660.409521,1455.581446
601.405389,-3775.050304,-8216.285956,919.314598
601.405701,-3849.070898,-7994.224174,842.705048
601.406014,-3552.988522,-8290.306550,1608.800546
601.406326,-3701.029710,-8586.388927,1838.629195
601.406639,-3775.050304,-8586.388927,1762.019645
601.406951,-3775.050304,-8364.327145,1608.800546
601.407264,-3775.050304,-8734.430116,1608.800546
601.407577,-3701.029710,-8734.430116,1378.971896
601.407889,-3478.967927,-8586.388927,1532.190996
601.408202,-3478.967927,-8660.409521,1685.410096
601.408514,-3701.029710,-8660.409521,2298.286494
601.408827,-3552.988522,-8438.347739,1991.848295
601.409139,-3478.967927,-8808.450710,1608.800546
601.409452,-3627.009116,-8734.430116,1532.190996
601.409764,-3552.988522,-8882.471304,1991.848295
601.410077,-3552.988522,-8512.368333,2145.067394
601.410390,-3552.988522,-8142.265362,1302.362347
601.410702,-3034.844362,-8438.347739,1378.971896
601.411015,-3034.844362,-8586.388927,2145.067394
601.411327,-3108.864956,-8660.409521,1302.362347
601.411640,-3108.864956,-8882.471304,1685.410096
601.411952,-3256.906145,-8808.450710,1532.190996
601.412265,-3034.844362,-8660.409521,1608.800546
601.412577,-3256.906145,-8660.409521,1532.190996
601.412890,-3108.864956,-8734.430116,1762.019645
601.413203,-2664.741391,-8956.491898,2068.457845
601.413515,-3108.864956,-8808.450710,1685.410096
601.413828,-3182.885551,-8660.409521,1149.143247
601.414140,-3330.926739,-8956.491898,1072.533697
601.414453,-3256.906145,-8956.491898,1378.971896
601.414765,-2960.823768,-8660.409521,919.314598
601.415078,-2812.782580,-9104.533087,842.705048
601.415390,-3404.947333,-8808.450710,1532.190996
601.415703,-2738.761985,-8956.491898,1225.752797
601.416016,-2664.741391,-9548.656652,1532.190996
601.416328,-3478.967927,-9104.533087,1378.971896
601.416641,-3256.906145,-8956.491898,1302.362347
601.416953,-2886.803174,-9178.553681,766.095498
601.417266,-2738.761985,-9252.574275,612.876398
601.417578,-3552.988522,-8734.430116,919.314598
601.417891,-3627.009116,-8660.409521,995.924147
601.418203,-3256.906145,-8956.491898,1455.581446
601.418516,-3034.844362,-9104.533087,689.485948
601.418828,-3256.906145,-9030.512492,306.438199
601.419141,-3923.091493,-8882.471304,383.047749
601.419454,-4071.132681,-8808.450710,1149.143247
601.419766,-3627.009116,-8734.430116,1225.752797
601.420079,-3108.864956,-8734.430116,766.095498
601.420391,-3330.926739,-9030.512492,536.266849
601.420704,-3849.070898,-9104.533087,766.095498
601.421016,-3478.967927,-8808.450710,383.047749
601.421329,-3404.947333,-9178.553681,919.314598
601.421641,-3849.070898,-9474.636058,1378.971896
601.421954,-4145.153275,-8882.471304,1302.362347
601.422267,-4071.132681,-8882.471304,1072.533697
601.422579,-3849.070898,-8956.491898,1149.143247
601.422892,-3182.885551,-8512.368333,76.609550
601.423204,-3775.050304,-8068.244768,153.219100
601.423517,-3701.029710,-8364.327145,536.266849
601.423829,-3182.885551,-8512.368333,919.314598
601.424142,-3108.864956,-9104.533087,1378.971896
601.424454,-3775.050304,-8808.450710,1302.362347
601.424767,-3849.070898,-9030.512492,1532.190996
601.425080,-3478.967927,-9400.615463,766.095498
601.425392,-3478.967927,-9104.533087,689.485948
601.425705,-3404.947333,-8808.450710,612.876398
601.426017,-3627.009116,-8882.471304,1072.533697
601.426330,-3627.009116,-8808.450710,1072.533697
601.426642,-3627.009116,-8808.450710,1072.533697
601.426955,-3627.009116,-8734.430116,1072.533697
601.427267,-3627.009116,-8808.450710,766.095498
601.427580,-4219.173869,-8364.327145,76.609550
601.427893,-4071.132681,-8438.347739,1225.752797
601.428205,-3552.988522,-8586.388927,1072.533697
601.428518,-3256.906145,-8882.471304,919.314598
601.428830,-3330.926739,-8956.491898,1225.752797
601.429143,-3552.988522,-8808.450710,1378.971896
601.429455,-3478.967927,-9030.512492,1838.629195
601.429768,-3256.906145,-9104.533087,1608.800546
601.430080,-3256.906145,-8512.368333,1149.143247
601.430393,-3775.050304,-8290.306550,1378.971896
601.430706,-3404.947333,-8586.388927,1378.971896
601.431018,-3034.844362,-8956.491898,1149.143247
601.431331,-3182.885551,-9104.533087,1072.533697
601.431643,-3701.029710,-8882.471304,1378.971896
601.431956,-3775.050304,-8956.491898,1762.019645
601.432268,-3701.029710,-8882.471304,1378.971896
601.432581,-3404.947333,-8660.409521,1378.971896
601.432893,-2812.782580,-9104.533087,459.657299
601.433206,-3923.091493,-8438.347739,459.657299
601.433519,-3775.050304,-8438.347739,383.047749
601.433831,-3108.864956,-8808.450710,995.924147
601.434144,-2664.741391,-8734.430116,1302.362347
601.434456,-3182.885551,-8882.471304,1378.971896
601.434769,-3701.029710,-8512.368333,919.314598
601.435081,-3330.926739,-8512.368333,1378.971896
601.435394,-2886.803174,-9030.512492,1225.752797
601.435706,-3182.885551,-9474.636058,919.314598
601.436019,-3997.112087,-9030.512492,1072.533697
601.436332,-4071.132681,-8882.471304,995.924147
601.436644,-3404.947333,-9326.594869,995.924147
601.436957,-3997.112087,-8956.491898,1378.971896
601.437269,-4145.153275,-8660.409521,1302.362347
601.437582,-3923.091493,-8660.409521,766.095498
601.437894,-3923.091493,-8660.409521,689.485948
601.438207,-3330.926739,-8956.491898,842.705048
601.438519,-3330.926739,-8734.430116,1225.752797
601.438832,-3108.864956,-8734.430116,1532.190996
601.439145,-3034.844362,-9252.574275,1762.019645
601.439457,-3552.988522,-8364.327145,1915.238745
601.439770,-3256.906145,-8734.430116,2145.067394
601.440082,-3478.967927,-9178.553681,1838.629195
601.440395,-3997.112087,-8586.388927,1225.752797
601.440707,-3552.988522,-8734.430116,842.705048
601.441020,-3849.070898,-9252.574275,919.314598
601.441332,-4071.132681,-8882.471304,995.924147
601.441645,-3404.947333,-8956.491898,1378.971896
601.441957,-3478.967927,-8586.388927,1378.971896
601.442270,-3404.947333,-8882.471304,1302.362347
601.442583,-3034.844362,-8808.450710,1225.752797
601.442895,-2590.720797,-8956.491898,1608.800546
601.443208,-2294.638420,-9030.512492,1762.019645
601.443520,-2072.576638,-9326.594869,1915.238745
601.443833,-1924.535449,-8956.491898,1762.019645
601.444145,-1998.556043,-9326.594869,1608.800546
601.444458,-2072.576638,-9326.594869,1838.629195
601.444770,-2368.659014,-9548.656652,766.095498
601.445083,-2368.659014,-9548.656652,1532.190996
601.445396,-2590.720797,-9474.636058,1532.190996
601.445708,-2590.720797,-9178.553681,1608.800546
601.446021,-2812.782580,-9252.574275,1608.800546
601.446333,-2738.761985,-9104.533087,1685.410096
601.446646,-2664.741391,-9104.533087,1225.752797
601.446958,-3108.864956,-8142.265362,1072.533697
601.447271,-2886.803174,-8364.327145,1072.533697
601.447583,-2960.823768,-8438.347739,1532.190996
601.447896,-3552.988522,-8216.285956,1532.190996
601.448209,-3627.009116,-8660.409521,1838.629195
601.448521,-3627.009116,-8734.430116,1532.190996
601.448834,-3627.009116,-8956.491898,1072.533697
601.449146,-3701.029710,-8734.430116,919.314598
601.449459,-3849.070898,-8660.409521,1455.581446
601.449771,-3627.009116,-8512.368333,1838.629195
601.450084,-3627.009116,-8586.388927,1378.971896
601.450396,-4219.173869,-8364.327145,1302.362347
601.450709,-3775.050304,-8660.409521,1225.752797
601.451022,-3701.029710,-8660.409521,842.705048
601.451334,-3701.029710,-8882.471304,1072.533697
601.451647,-3478.967927,-9030.512492,1072.533697
601.451959,-3997.112087,-8512.368333,919.314598
601.452272,-4219.173869,-9030.512492,1455.581446
601.452584,-3923.091493,-8956.491898,612.876398
601.452897,-3923.091493,-8956.491898,689.485948
601.453209,-3923.091493,-9030.512492,766.095498
601.453522,-3627.009116,-9252.574275,536.266849
601.453835,-3627.009116,-9104.533087,842.705048
601.454147,-3330.926739,-8882.471304,1149.143247
601.454460,-3034.844362,-9030.512492,1378.971896
601.454772,-3108.864956,-9252.574275,1072.533697
601.455085,-3182.885551,-9104.533087,383.047749
601.455397,-3330.926739,-9178.553681,689.485948
601.455710,-3330.926739,-9104.533087,689.485948
601.456022,-3478.967927,-9104.533087,919.314598
601.456335,-3330.926739,-9104.533087,995.924147
601.456648,-3404.947333,-9326.594869,842.705048
601.456960,-3552.988522,-9178.553681,995.924147
601.457273,-3478.967927,-9474.636058,995.924147
601.457585,-3478.967927,-8660.409521,766.095498
601.457898,-3108.864956,-9178.553681,689.485948
601.458210,-3108.864956,-9178.553681,919.314598
601.458523,-3256.906145,-8956.491898,995.924147
601.458835,-3256.906145,-8956.491898,1225.752797
601.459148,-2960.823768,-9030.512492,2298.286494
601.459461,-3256.906145,-9104.533087,1838.629195
601.459773,-3256.906145,-8956.491898,842.705048
601.460086,-3330.926739,-8808.450710,1149.143247
601.460398,-3108.864956,-8956.491898,612.876398
601.460711,-3256.906145,-8734.430116,536.266849
601.461023,-3108.864956,-8660.409521,919.314598
601.461336,-2960.823768,-8734.430116,1072.533697
601.461648,-3034.844362,-8734.430116,1608.800546
601.461961,-3034.844362,-9178.553681,1838.629195
601.462274,-3034.844362,-8956.491898,1072.533697
601.462586,-2960.823768,-9030.512492,1072.533697
601.462899,-2812.782580,-8956.491898,1455.581446
601.463211,-2886.803174,-8956.491898,1225.752797
601.463524,-2960.823768,-9030.512492,1378.971896
601.463836,-2664.741391,-8808.450710,1455.581446
601.464149,-2516.700203,-8808.450710,1302.362347
601.464461,-2960.823768,-9030.512492,1378.971896
601.464774,-3034.844362,-8808.450710,842.705048
601.465086,-3108.864956,-9104.533087,1378.971896
601.465399,-3478.967927,-9104.533087,1455.581446
601.465712,-3182.885551,-8882.471304,1455.581446
601.466024,-3256.906145,-8734.430116,1378.971896
601.466337,-3256.906145,-8660.409521,1225.752797
601.466649,-3552.988522,-8364.327145,1455.581446
601.466962,-3627.009116,-8438.347739,1455.581446
601.467274,-3330.926739,-8660.409521,1762.019645
601.467587,-3997.112087,-8808.450710,1685.410096
601.467899,-3923.091493,-8882.471304,1455.581446
601.468212,-4293.194464,-8660.409521,1455.581446
601.468525,-4219.173869,-8660.409521,919.314598
601.468837,-4293.194464,-8808.450710,1149.143247
601.469150,-3849.070898,-7994.224174,842.705048
601.469462,-4515.256246,-8290.306550,919.314598
601.469775,-4441.235652,-8216.285956,1072.533697
601.470087,-4219.173869,-8438.347739,1378.971896
601.470400,-4145.153275,-8586.388927,1302.362347
601.470712,-3923.091493,-8660.409521,1149.143247
601.471025,-3923.091493,-8512.368333,1532.190996
601.471338,-3923.091493,-8364.327145,1225.752797
601.471650,-3775.050304,-8364.327145,459.657299
601.471963,-3256.906145,-8586.388927,612.876398
601.472275,-3478.967927,-8808.450710,612.876398
601.472588,-3478.967927,-8734.430116,1072.533697
601.472900,-3108.864956,-9252.574275,1072.533697
601.473213,-3330.926739,-9474.636058,1072.533697
601.473526,-3330.926739,-9252.574275,1455.581446
601.473838,-3330.926739,-9252.574275,919.314598
601.474151,-3182.885551,-8808.450710,1149.143247
601.474463,-2664.741391,-9178.553681,842.705048
601.474776,-2738.761985,-9178.553681,995.924147
601.475088,-2886.803174,-9252.574275,842.705048
601.475401,-2664.741391,-9326.594869,1149.143247
601.475714,-2738.761985,-9326.594869,1072.533697
601.476026,-2664.741391,-9326.594869,1302.362347
601.476339,-2960.823768,-9474.636058,1072.533697
601.476651,-2960.823768,-9252.574275,842.705048
601.476964,-2664.741391,-9548.656652,612.876398
601.477276,-3404.947333,-9030.512492,612.876398
601.477589,-3997.112087,-8808.450710,842.705048
601.477902,-3997.112087,-8586.388927,919.314598
601.478214,-3701.029710,-9030.512492,766.095498
601.478527,-4293.194464,-8660.409521,229.828649
601.478839,-4885.359217,-8364.327145,0.000000
601.479152,-4737.318029,-8290.306550,689.485948
601.479464,-4293.194464,-8438.347739,612.876398
601.479777,-4293.194464,-8586.388927,229.828649
601.480090,-4515.256246,-8512.368333,306.438199
601.480402,-4515.256246,-8364.327145,229.828649
601.480715,-4293.194464,-8438.347739,766.095498
601.481027,-3923.091493,-8142.265362,306.438199
601.481340,-3997.112087,-8068.244768,689.485948
601.481652,-3627.009116,-8512.368333,459.657299
601.481965,-3775.050304,-9030.512492,612.876398
601.482278,-3552.988522,-8660.409521,536.266849
601.482590,-3627.009116,-8734.430116,383.047749
601.482903,-3701.029710,-8882.471304,766.095498
601.483215,-3849.070898,-8364.327145,919.314598
601.483528,-3404.947333,-8216.285956,306.438199
601.483840,-4293.194464,-8364.327145,0.000000
601.484153,-4515.256246,-8660.409521,229.828649
601.484466,-4515.256246,-8290.306550,0.000000
601.484778,-4441.235652,-8364.327145,76.609550
601.485091,-4589.276840,-8512.368333,0.000000
601.485403,-4737.318029,-8142.265362,306.438199
601.485716,-4811.338623,-8216.285956,0.000000
601.486028,-4589.276840,-8660.409521,-459.657299
601.486341,-4367.215058,-8142.265362,-153.219100
601.486654,-4293.194464,-8512.368333,-229.828649
601.486966,-4737.318029,-8512.368333,76.609550
601.487279,-3997.112087,-8882.471304,306.438199
601.487591,-3701.029710,-8882.471304,229.828649
601.487904,-3997.112087,-8364.327145,766.095498
601.488216,-3849.070898,-8882.471304,229.828649
601.488529,-3849.070898,-8808.450710,76.609550
601.488842,-3701.029710,-9030.512492,0.000000
601.489154,-4515.256246,-8734.430116,153.219100
601.489467,-3849.070898,-8734.430116,0.000000
601.489779,-3997.112087,-8734.430116,-153.219100
601.490092,-4145.153275,-8734.430116,153.219100
601.490404,-3775.050304,-9104.533087,306.438199
601.490717,-4145.153275,-8956.491898,76.609550
601.491030,-3627.009116,-8882.471304,229.828649
601.491342,-3627.009116,-8586.388927,459.657299
601.491655,-3404.947333,-8808.450710,536.266849
601.491967,-3330.926739,-9326.594869,612.876398
601.492280,-3256.906145,-9178.553681,612.876398
601.492592,-3330.926739,-9252.574275,612.876398
601.492905,-2516.700203,-9326.594869,919.314598
601.493218,-2590.720797,-9474.636058,1149.143247
601.493530,-2960.823768,-8808.450710,919.314598
601.493843,-3034.844362,-8734.430116,766.095498
601.494155,-3182.885551,-9252.574275,842.705048
601.494468,-3330.926739,-9104.533087,995.924147
601.494780,-3330.926739,-8956.491898,995.924147
601.495093,-3330.926739,-8808.450710,919.314598
601.495406,-3552.988522,-8216.285956,689.485948
601.495718,-3849.070898,-8438.347739,1225.752797
601.496031,-3478.967927,-8586.388927,1149.143247
601.496343,-3552.988522,-9178.553681,1149.143247
601.496656,-3849.070898,-8882.471304,1072.533697
601.496968,-4145.153275,-8660.409521,919.314598
601.497281,-4145.153275,-8660.409521,1225.752797
601.497594,-4145.153275,-8882.471304,1685.410096
601.497906,-4071.132681,-8586.388927,689.485948
601.498219,-4219.173869,-8438.347739,536.266849
601.498531,-4145.153275,-8438.347739,919.314598
601.498844,-3701.029710,-8660.409521,1455.581446
601.499156,-3923.091493,-8364.327145,1378.971896
601.499469,-4071.132681,-8290.306550,1302.362347
601.499782,-3997.112087,-8512.368333,1302.362347
601.500094,-3997.112087,-8290.306550,1302.362347
601.500407,-4367.215058,-8216.285956,842.705048
601.500719,-4219.173869,-8290.306550,689.485948
601.501032,-4293.194464,-7920.203579,1302.362347
601.501344,-4367.215058,-8438.347739,1225.752797
601.501657,-4367.215058,-8290.306550,842.705048
601.501970,-4441.235652,-8364.327145,766.095498
601.502282,-4145.153275,-8512.368333,612.876398
601.502595,-4219.173869,-8364.327145,766.095498
601.502907,-4145.153275,-8290.306550,919.314598
601.503220,-3775.050304,-8364.327145,689.485948
601.503532,-3923.091493,-8438.347739,919.314598
601.503845,-4145.153275,-8734.430116,612.876398
601.504158,-3997.112087,-8808.450710,459.657299
601.504470,-4071.132681,-8808.450710,306.438199
601.504783,-3849.070898,-8808.450710,459.657299
601.505095,-3849.070898,-8808.450710,689.485948
601.505408,-3330.926739,-9474.636058,459.657299
601.505720,-3627.009116,-9030.512492,689.485948
601.506033,-3701.029710,-8808.450710,536.266849
601.506346,-3552.988522,-9104.533087,459.657299
601.506658,-3552.988522,-9030.512492,536.266849
601.506971,-3775.050304,-9104.533087,612.876398
601.507283,-4071.132681,-9178.553681,459.657299
601.507596,-3849.070898,-8956.491898,383.047749
601.507908,-3997.112087,-8808.450710,0.000000
601.508221,-3997.112087,-8660.409521,536.266849
601.508534,-3775.050304,-8956.491898,76.609550
601.508846,-4071.132681,-8956.491898,153.219100
601.509159,-3849.070898,-8956.491898,0.000000
601.509471,-3923.091493,-8882.471304,0.000000
601.509784,-3923.091493,-8512.368333,0.000000
601.510096,-3404.947333,-8808.450710,76.609550
601.510409,-3627.009116,-8734.430116,76.609550
601.510722,-3701.029710,-8734.430116,229.828649
601.511034,-3330.926739,-9030.512492,76.609550
601.511347,-3627.009116,-9104.533087,0.000000
601.511659,-3627.009116,-8882.471304,153.219100
601.511972,-3627.009116,-8882.471304,459.657299
601.512284,-3256.906145,-8734.430116,766.095498
601.512597,-3182.885551,-8808.450710,306.438199
601.512910,-4219.173869,-8586.388927,306.438199
601.513222,-4367.215058,-8290.306550,919.314598
601.513535,-3552.988522,-8808.450710,306.438199
601.513847,-3701.029710,-9030.512492,306.438199
601.514160,-4737.318029,-8364.327145,459.657299
601.514472,-4663.297435,-8290.306550,536.266849
601.514785,-3627.009116,-8438.347739,0.000000
601.515098,-3849.070898,-8882.471304,1149.143247
601.515410,-4589.276840,-8808.450710,229.828649
601.515723,-4811.338623,-8438.347739,306.438199
601.516035,-4515.256246,-8660.409521,842.705048
601.516348,-4071.132681,-8660.409521,766.095498
601.516660,-3701.029710,-8734.430116,383.047749
601.516973,-4145.153275,-8586.388927,459.657299
601.517286,-4219.173869,-8734.430116,689.485948
601.517598,-3849.070898,-8586.388927,1378.971896
601.517911,-3923.091493,-7994.224174,689.485948
601.518223,-4367.215058,-8586.388927,919.314598
601.518536,-4441.235652,-8438.347739,612.876398
601.518848,-3627.009116,-8586.388927,459.657299
601.519161,-3404.947333,-8956.491898,383.047749
601.519474,-3997.112087,-9030.512492,1225.752797
601.519786,-3997.112087,-8660.409521,1915.238745
601.520099,-3849.070898,-8660.409521,1762.019645
601.520411,-3627.009116,-8808.450710,1225.752797
601.520724,-3775.050304,-9104.533087,459.657299
601.521036,-3997.112087,-8660.409521,612.876398
601.521349,-3701.029710,-8956.491898,536.266849
601.521662,-3478.967927,-8808.450710,919.314598
601.521974,-3256.906145,-8660.409521,1378.971896
601.522287,-3627.009116,-8734.430116,1532.190996
601.522599,-3478.967927,-8438.347739,1455.581446
601.522912,-3330.926739,-8290.306550,229.828649
601.523224,-3478.967927,-8956.491898,766.095498
601.523537,-3478.967927,-8882.471304,919.314598
601.523850,-3330.926739,-8882.471304,842.705048
601.524162,-3256.906145,-8808.450710,919.314598
601.524475,-3256.906145,-8660.409521,689.485948
601.524787,-3404.947333,-9104.533087,1378.971896
601.525100,-3034.844362,-9252.574275,1455.581446
601.525412,-3330.926739,-9104.533087,995.924147
601.525725,-3701.029710,-8734.430116,1455.581446
601.526038,-3923.091493,-8808.450710,1225.752797
601.526350,-3552.988522,-8808.450710,459.657299
601.526663,-3627.009116,-8512.368333,0.000000
601.526975,-3923.091493,-8956.491898,306.438199
601.527288,-3997.112087,-8734.430116,612.876398
601.527600,-3997.112087,-8660.409521,1225.752797
601.527913,-3627.009116,-9178.553681,995.924147
601.528226,-4367.215058,-8882.471304,612.876398
601.528538,-4071.132681,-8586.388927,76.609550
601.528851,-3256.906145,-9104.533087,229.828649
601.529163,-2812.782580,-8734.430116,76.609550
601.529476,-3034.844362,-8734.430116,383.047749
601.529788,-3627.009116,-8734.430116,1915.238745
601.530101,-3627.009116,-8734.430116,2221.676944
601.530414,-3256.906145,-9252.574275,1685.410096
601.530726,-3478.967927,-9104.533087,766.095498
601.531039,-4589.276840,-8956.491898,536.266849
601.531351,-5255.462188,-8660.409521,153.219100
601.531664,-4441.235652,-8586.388927,0.000000
601.531976,-3775.050304,-9252.574275,76.609550
601.532289,-3997.112087,-8512.368333,383.047749
601.532602,-4885.359217,-7994.224174,536.266849
601.532914,-4071.132681,-8734.430116,689.485948
601.533227,-3404.947333,-8882.471304,612.876398
601.533539,-3330.926739,-8734.430116,689.485948
601.533852,-3775.050304,-8216.285956,919.314598
601.534164,-2738.761985,-8438.347739,1532.190996
601.534477,-2664.741391,-9030.512492,1302.362347
601.534790,-3256.906145,-8734.430116,1072.533697
601.535102,-4293.194464,-8586.388927,919.314598
601.535415,-4367.215058,-8808.450710,995.924147
601.535727,-4441.235652,-9104.533087,689.485948
601.536040,-4589.276840,-8734.430116,229.828649
601.536352,-4515.256246,-8734.430116,-229.828649
601.536665,-4515.256246,-8734.430116,-153.219100
601.536978,-4515.256246,-8438.347739,76.609550
601.537290,-3775.050304,-7994.224174,689.485948
601.537603,-3256.906145,-8734.430116,689.485948
601.537915,-3478.967927,-8438.347739,995.924147
601.538228,-3034.844362,-8512.368333,1149.143247
601.538540,-3182.885551,-8882.471304,1149.143247
601.538853,-3552.988522,-8956.491898,1149.143247
601.539166,-3775.050304,-8586.388927,536.266849
601.539478,-4219.173869,-8364.327145,612.876398
601.539791,-4219.173869,-8586.388927,459.657299
601.540103,-4589.276840,-8734.430116,76.609550
601.540416,-5403.503377,-8364.327145,0.000000
601.540728,-5921.647536,-8364.327145,0.000000
601.541041,-5403.503377,-8290.306550,-536.266849
601.541354,-4811.338623,-8142.265362,-766.095498
601.541666,-5181.441594,-7994.224174,-306.438199
601.541979,-4737.318029,-7846.182985,459.657299
601.542291,-4145.153275,-8142.265362,995.924147
601.542604,-4219.173869,-8438.347739,612.876398
601.542916,-4071.132681,-8882.471304,306.438199
601.543229,-3627.009116,-9030.512492,153.219100
601.543542,-3404.947333,-9030.512492,76.609550
601.543854,-3627.009116,-9474.636058,0.000000
601.544167,-3775.050304,-9030.512492,306.438199
601.544479,-3701.029710,-9252.574275,0.000000
601.544792,-3923.091493,-9104.533087,153.219100
601.545104,-3627.009116,-9474.636058,229.828649
601.545417,-3923.091493,-9030.512492,-229.828649
601.545730,-3552.988522,-8808.450710,76.609550
601.546042,-3849.070898,-8586.388927,459.657299
601.546355,-3552.988522,-8438.347739,459.657299
601.546667,-3330.926739,-7920.203579,1072.533697
601.546980,-3923.091493,-8512.368333,766.095498
601.547292,-3849.070898,-8882.471304,689.485948
601.547605,-3775.050304,-9104.533087,229.828649
601.547918,-3997.112087,-9400.615463,383.047749
601.548230,-3701.029710,-9178.553681,536.266849
601.548543,-3849.070898,-9104.533087,383.047749
601.548855,-3775.050304,-8808.450710,383.047749
601.549168,-3404.947333,-8956.491898,536.266849
601.549480,-2886.803174,-8586.388927,995.924147
601.549793,-3182.885551,-8660.409521,1225.752797
601.550106,-3182.885551,-8808.450710,1302.362347
601.550418,-3034.844362,-8882.471304,1455.581446
601.550731,-3404.947333,-8660.409521,1225.752797
601.551043,-3478.967927,-8438.347739,919.314598
601.551356,-3701.029710,-8216.285956,842.705048
601.551668,-3775.050304,-8512.368333,995.924147
601.551981,-3997.112087,-8364.327145,1149.143247
601.552294,-4219.173869,-8734.430116,919.314598
601.552606,-4071.132681,-8956.491898,766.095498
601.552919,-4071.132681,-8808.450710,919.314598
601.553231,-3923.091493,-8882.471304,612.876398
601.553544,-3478.967927,-8882.471304,842.705048
601.553856,-2812.782580,-8956.491898,1225.752797
601.554169,-3256.906145,-8956.491898,1302.362347
601.554482,-3330.926739,-8586.388927,1225.752797
601.554794,-3478.967927,-8586.388927,1378.971896
601.555107,-3701.029710,-8438.347739,1302.362347
601.555419,-3701.029710,-8586.388927,1225.752797
601.555732,-3997.112087,-8364.327145,919.314598
601.556044,-3552.988522,-8438.347739,1378.971896
601.556357,-4367.215058,-8068.244768,536.266849
601.556670,-4293.194464,-8290.306550,842.705048
601.556982,-3997.112087,-8660.409521,612.876398
601.557295,-4441.235652,-8734.430116,995.924147
601.557607,-4441.235652,-8882.471304,1149.143247
601.557920,-3923.091493,-9104.533087,1149.143247
601.558232,-3775.050304,-9178.553681,919.314598
601.558545,-3849.070898,-8734.430116,995.924147
601.558858,-3775.050304,-8882.471304,1072.533697
601.559170,-3775.050304,-8660.409521,1378.971896
601.559483,-3849.070898,-8660.409521,919.314598
601.559795,-3775.050304,-8734.430116,1149.143247
601.560108,-3923.091493,-8660.409521,919.314598
601.560420,-4071.132681,-8734.430116,842.705048
601.560733,-4219.173869,-8734.430116,1149.143247
601.561046,-4219.173869,-8438.347739,536.266849
601.561358,-4589.276840,-8290.306550,306.438199
601.561671,-4219.173869,-8216.285956,383.047749
601.561983,-4293.194464,-8438.347739,383.047749
601.562296,-4293.194464,-8586.388927,306.438199
601.562608,-4145.153275,-8882.471304,306.438199
601.562921,-4219.173869,-8734.430116,612.876398
601.563234,-4367.215058,-8808.450710,229.828649
601.563546,-4145.153275,-8808.450710,1149.143247
601.563859,-3997.112087,-8956.491898,612.876398
601.564171,-3330.926739,-8586.388927,689.485948
601.564484,-3923.091493,-8660.409521,459.657299
601.564796,-3627.009116,-8734.430116,306.438199
601.565109,-3775.050304,-8808.450710,459.657299
601.565422,-3627.009116,-9104.533087,0.000000
601.565734,-3627.009116,-8512.368333,306.438199
601.566047,-3627.009116,-8660.409521,383.047749
601.566359,-3701.029710,-8512.368333,-459.657299
601.566672,-3478.967927,-8734.430116,383.047749
601.566984,-3701.029710,-9178.553681,612.876398
601.567297,-3923.091493,-8808.450710,459.657299
601.567610,-3701.029710,-8956.491898,76.609550
601.567922,-3701.029710,-9030.512492,-229.828649
601.568235,-3923.091493,-8660.409521,153.219100
601.568547,-3923.091493,-8956.491898,536.266849
601.568860,-3923.091493,-8660.409521,536.266849
601.569172,-4071.132681,-8808.450710,612.876398
601.569485,-4293.194464,-8956.491898,229.828649
601.569798,-4219.173869,-9030.512492,0.000000
601.570110,-4145.153275,-8956.491898,76.609550
601.570423,-4071.132681,-8364.327145,76.609550
601.570735,-3923.091493,-8364.327145,459.657299
601.571048,-3330.926739,-8808.450710,842.705048
601.571360,-3701.029710,-8660.409521,536.266849
601.571673,-3775.050304,-8808.450710,612.876398
601.571985,-3775.050304,-9030.512492,766.095498
601.572298,-4071.132681,-9104.533087,842.705048
601.572610,-3775.050304,-9030.512492,766.095498
601.572923,-3182.885551,-8808.450710,383.047749
601.573236,-3775.050304,-8586.388927,306.438199
601.573548,-3627.009116,-9030.512492,153.219100
601.573861,-3404.947333,-8438.347739,919.314598
601.574173,-3108.864956,-8956.491898,919.314598
601.574486,-2960.823768,-9104.533087,766.095498
601.574798,-3034.844362,-9178.553681,1149.143247
601.575111,-2960.823768,-9252.574275,1455.581446
601.575423,-2812.782580,-8956.491898,1455.581446
601.575736,-2368.659014,-9400.615463,1532.190996
601.576048,-2220.617826,-8660.409521,1532.190996
601.576361,-2368.659014,-9252.574275,1991.848295
601.576673,-1924.535449,-9178.553681,1762.019645
601.576986,-2146.597232,-9400.615463,1762.019645
601.577298,-2368.659014,-9400.615463,1838.629195
601.577611,-2886.803174,-9178.553681,2298.286494
601.577923,-3034.844362,-8808.450710,2451.505594
601.578236,-2664.741391,-9178.553681,2681.334243
601.578549,-3330.926739,-8586.388927,1838.629195
601.578861,-3775.050304,-8364.327145,1532.190996
601.579174,-3627.009116,-8364.327145,1915.238745
601.579486,-3849.070898,-8364.327145,1762.019645
601.579799,-3701.029710,-8364.327145,1991.848295
601.580111,-3775.050304,-8438.347739,1991.848295
601.580424,-3627.009116,-8512.368333,1762.019645
601.580736,-3330.926739,-8734.430116,1915.238745
601.581049,-3478.967927,-8808.450710,2374.896044
601.581361,-3256.906145,-8660.409521,2145.067394
601.581674,-3478.967927,-8808.450710,1838.629195
601.581986,-3552.988522,-8734.430116,1915.238745
601.582299,-3256.906145,-8734.430116,1838.629195
601.582611,-3330.926739,-8660.409521,1838.629195
601.582924,-3478.967927,-8882.471304,1838.629195
601.583237,-2886.803174,-9030.512492,2145.067394
601.583549,-3775.050304,-8586.388927,2145.067394
601.583862,-3849.070898,-8882.471304,1991.848295
601.584174,-4071.132681,-8364.327145,1532.190996
601.584487,-3627.009116,-8438.347739,1685.410096
601.584799,-3627.009116,-8290.306550,1532.190996
601.585112,-3552.988522,-8512.368333,1225.752797
601.585424,-3478.967927,-8438.347739,1532.190996
601.585737,-3330.926739,-8512.368333,1532.190996
601.586049,-3034.844362,-8808.450710,842.705048
601.586362,-3627.009116,-8734.430116,1532.190996
601.586674,-3552.988522,-8956.491898,1762.019645
601.586987,-3330.926739,-9474.636058,1378.971896
601.587299,-3182.885551,-9326.594869,1072.533697
601.587612,-3627.009116,-9252.574275,919.314598
601.587924,-3256.906145,-8882.471304,1532.190996
601.588237,-3404.947333,-8364.327145,919.314598
601.588550,-3108.864956,-8660.409521,1225.752797
601.588862,-3256.906145,-8512.368333,1072.533697
601.589175,-3256.906145,-8734.430116,1072.533697
601.589487,-3478.967927,-8882.471304,842.705048
601.589800,-3256.906145,-9104.533087,689.485948
601.590112,-3404.947333,-8808.450710,383.047749
601.590425,-3330.926739,-9030.512492,229.828649
601.590737,-3404.947333,-9178.553681,919.314598
601.591050,-3478.967927,-8956.491898,229.828649
601.591362,-3256.906145,-9252.574275,766.095498
601.591675,-3330.926739,-9326.594869,459.657299
601.591987,-3256.906145,-9474.636058,459.657299
601.592300,-2960.823768,-9622.677246,306.438199
601.592612,-3182.885551,-9400.615463,229.828649
601.592925,-3256.906145,-8882.471304,536.266849
601.593237,-2738.761985,-8956.491898,612.876398
601.593550,-2886.803174,-8586.388927,842.705048
601.593863,-2812.782580,-8660.409521,766.095498
601.594175,-3108.864956,-8660.409521,153.219100
601.594488,-3256.906145,-8586.388927,383.047749
601.594800,-3034.844362,-8808.450710,612.876398
601.595113,-3034.844362,-8882.471304,842.705048
601.595425,-2886.803174,-9548.656652,1378.971896
601.595738,-3034.844362,-9474.636058,1302.362347
601.596050,-3404.947333,-9252.574275,612.876398
601.596363,-3330.926739,-9326.594869,612.876398
601.596675,-3182.885551,-9400.615463,612.876398
601.596988,-3182.885551,-9326.594869,612.876398
601.597300,-3108.864956,-9326.594869,766.095498
601.597613,-2664.741391,-8956.491898,1149.143247
601.597925,-3182.885551,-8734.430116,1532.190996
601.598238,-3182.885551,-8586.388927,1302.362347
601.598550,-3849.070898,-8734.430116,1762.019645
601.598863,-3552.988522,-8808.450710,1072.533697
601.599176,-3701.029710,-8660.409521,1225.752797
601.599488,-3923.091493,-8586.388927,1378.971896
601.599801,-3923.091493,-8660.409521,1455.581446
601.600113,-3404.947333,-8808.450710,1762.019645
601.600426,-3775.050304,-8512.368333,1302.362347
601.600738,-3923.091493,-8734.430116,1532.190996
601.601051,-3849.070898,-8808.450710,1532.190996
601.601363,-3701.029710,-8808.450710,1762.019645
601.601676,-3330.926739,-8808.450710,2221.676944
601.601988,-3552.988522,-8808.450710,1762.019645
601.602301,-3552.988522,-8586.388927,1762.019645
601.602613,-3404.947333,-8586.388927,919.314598
601.602926,-3256.906145,-8660.409521,1915.238745
601.603238,-3997.112087,-8364.327145,2145.067394
601.603551,-3478.967927,-8660.409521,2298.286494
601.603863,-3404.947333,-8882.471304,1991.848295
601.604176,-3849.070898,-8734.430116,2068.457845
601.604489,-3627.009116,-8808.450710,1685.410096
601.604801,-3627.009116,-8660.409521,1455.581446
601.605114,-3701.029710,-8216.285956,1302.362347
601.605426,-3478.967927,-8660.409521,842.705048
601.605739,-2960.823768,-8290.306550,1991.848295
601.606051,-2738.761985,-8808.450710,2221.676944
601.606364,-2960.823768,-8882.471304,1915.238745
601.606676,-2960.823768,-8882.471304,1838.629195
601.606989,-2812.782580,-9326.594869,1608.800546
601.607301,-2886.803174,-8808.450710,1455.581446
601.607614,-2886.803174,-8734.430116,1762.019645
601.607926,-2886.803174,-8512.368333,2068.457845
601.608239,-2664.741391,-9030.512492,1532.190996
601.608551,-3256.906145,-9030.512492,1455.581446
601.608864,-3404.947333,-8808.450710,1455.581446
601.609176,-3182.885551,-8586.388927,1455.581446
601.609489,-2812.782580,-9326.594869,919.314598
601.609802,-3404.947333,-8882.471304,919.314598
601.610114,-3404.947333,-8956.491898,1455.581446
601.610427,-3256.906145,-8734.430116,1532.190996
601.610739,-3182.885551,-8808.450710,919.314598
601.611052,-2886.803174,-9030.512492,842.705048
601.611364,-3256.906145,-9178.553681,995.924147
601.611677,-3701.029710,-8956.491898,1072.533697
601.611989,-3478.967927,-9252.574275,1072.533697
601.612302,-2738.761985,-8882.471304,1455.581446
601.612614,-3108.864956,-8808.450710,995.924147
601.612927,-3627.009116,-9474.636058,612.876398
601.613239,-3478.967927,-9326.594869,612.876398
601.613552,-3108.864956,-9104.533087,842.705048
601.613864,-3775.050304,-9178.553681,1072.533697
601.614177,-4071.132681,-8808.450710,766.095498
601.614490,-3404.947333,-8956.491898,153.219100
601.614802,-3627.009116,-8882.471304,229.828649
601.615115,-3330.926739,-9178.553681,306.438199
601.615427,-3404.947333,-9178.553681,919.314598
601.615740,-3330.926739,-8586.388927,1225.752797
601.616052,-3775.050304,-8956.491898,919.314598
601.616365,-3701.029710,-9252.574275,689.485948
601.616677,-3849.070898,-9030.512492,459.657299
601.616990,-3923.091493,-9252.574275,689.485948
601.617302,-3182.885551,-8734.430116,459.657299
601.617615,-2738.761985,-8734.430116,536.266849
601.617927,-3330.926739,-8882.471304,1302.362347
601.618240,-3849.070898,-8882.471304,1532.190996
601.618552,-3330.926739,-8734.430116,1302.362347
601.618865,-3627.009116,-8586.388927,919.314598
601.619177,-3627.009116,-8660.409521,995.924147
601.619490,-3701.029710,-8586.388927,842.705048
601.619803,-3775.050304,-8586.388927,689.485948
601.620115,-3923.091493,-8882.471304,842.705048
601.620428,-3923.091493,-8808.450710,612.876398
601.620740,-3701.029710,-9178.553681,1149.143247
601.621053,-3775.050304,-8808.450710,1072.533697
601.621365,-3404.947333,-9252.574275,842.705048
601.621678,-3108.864956,-9326.594869,842.705048
601.621990,-3404.947333,-9252.574275,1072.533697
601.622303,-3256.906145,-9178.553681,1685.410096
601.622615,-3108.864956,-8364.327145,1762.019645
601.622928,-2960.823768,-8956.491898,919.314598
601.623240,-3182.885551,-9104.533087,1225.752797
601.623553,-3478.967927,-8438.347739,842.705048
601.623865,-3108.864956,-8734.430116,689.485948
601.624178,-3404.947333,-8956.491898,919.314598
601.624490,-3849.070898,-8586.388927,1608.800546
601.624803,-4145.153275,-8586.388927,1915.238745
601.625116,-3404.947333,-8512.368333,1149.143247
601.625428,-3478.967927,-8808.450710,306.438199
601.625741,-3552.988522,-8956.491898,536.266849
601.626053,-3997.112087,-8364.327145,612.876398
601.626366,-3627.009116,-8660.409521,1149.143247
601.626678,-2812.782580,-9030.512492,1378.971896
601.626991,-2886.803174,-8956.491898,1225.752797
601.627303,-3404.947333,-9400.615463,766.095498
601.627616,-3552.988522,-8438.347739,1302.362347
601.627928,-2146.597232,-8882.471304,1225.752797
601.628241,-2664.741391,-9178.553681,1149.143247
601.628553,-3923.091493,-8808.450710,1302.362347
601.628866,-3627.009116,-8882.471304,1302.362347
601.629178,-3256.906145,-9104.533087,995.924147
601.629491,-3404.947333,-9178.553681,842.705048
601.629803,-3849.070898,-8438.347739,1302.362347
601.630116,-3701.029710,-8882.471304,1149.143247
601.630429,-3775.050304,-8660.409521,766.095498
601.630741,-3923.091493,-8364.327145,995.924147
601.631054,-3627.009116,-8660.409521,919.314598
601.631366,-3552.988522,-8660.409521,1149.143247
601.631679,-3775.050304,-8882.471304,1608.800546
601.631991,-3256.906145,-8586.388927,1378.971896
601.632304,-3256.906145,-8882.471304,1225.752797
601.632616,-3775.050304,-8512.368333,1378.971896
601.632929,-3775.050304,-8808.450710,1072.533697
601.633241,-3330.926739,-8660.409521,612.876398
601.633554,-3627.009116,-9252.574275,1225.752797
601.633866,-3404.947333,-9252.574275,1378.971896
601.634179,-3108.864956,-9030.512492,1455.581446
601.634491,-3330.926739,-8808.450710,1149.143247
601.634804,-2516.700203,-9104.533087,1762.019645
601.635116,-2294.638420,-9178.553681,995.924147
601.635429,-2516.700203,-8586.388927,1685.410096
601.635742,-2442.679609,-8882.471304,1762.019645
601.636054,-2368.659014,-9104.533087,1608.800546
601.636367,-2294.638420,-9178.553681,1455.581446
601.636679,-2516.700203,-9252.574275,1685.410096
601.636992,-2516.700203,-9252.574275,1762.019645
601.637304,-2442.679609,-9178.553681,1455.581446
601.637617,-3108.864956,-8956.491898,1685.410096
601.637929,-2812.782580,-9030.512492,1991.848295
601.638242,-2812.782580,-9178.553681,1532.190996
601.638554,-2738.761985,-9252.574275,1455.581446
601.638867,-2886.803174,-9178.553681,1302.362347
601.639179,-2886.803174,-9104.533087,1455.581446
601.639492,-2738.761985,-8734.430116,2298.286494
601.639804,-3034.844362,-8586.388927,2068.457845
601.640117,-3256.906145,-8512.368333,1532.190996
601.640429,-3034.844362,-8364.327145,1608.800546
601.640742,-3256.906145,-8734.430116,1608.800546
601.641055,-3627.009116,-8438.347739,1225.752797
601.641367,-3849.070898,-8660.409521,1072.533697
601.641680,-3923.091493,-8512.368333,1302.362347
601.641992,-3923.091493,-8734.430116,1455.581446
601.642305,-4071.132681,-8290.306550,1532.190996
601.642617,-3849.070898,-8364.327145,919.314598
601.642930,-3923.091493,-8364.327145,1149.143247
601.643242,-3849.070898,-8956.491898,766.095498
601.643555,-3701.029710,-8808.450710,1149.143247
601.643867,-3182.885551,-8956.491898,995.924147
601.644180,-3330.926739,-8882.471304,1762.019645
601.644492,-3256.906145,-8882.471304,1455.581446
601.644805,-2960.823768,-8808.450710,1532.190996
601.645117,-3478.967927,-8956.491898,1225.752797
601.645430,-3330.926739,-8808.450710,1378.971896
601.645743,-3256.906145,-9030.512492,1072.533697
601.646055,-3404.947333,-8956.491898,842.705048
601.646368,-3478.967927,-8808.450710,842.705048
601.646680,-3552.988522,-8882.471304,1149.143247
601.646993,-3404.947333,-8956.491898,1149.143247
601.647305,-3034.844362,-8660.409521,1149.143247
601.647618,-3849.070898,-8882.471304,995.924147
601.647930,-3923.091493,-8586.388927,689.485948
601.648243,-3404.947333,-8956.491898,689.485948
601.648555,-3404.947333,-8882.471304,842.705048
601.648868,-3404.947333,-8660.409521,842.705048
601.649180,-3404.947333,-9030.512492,1072.533697
601.649493,-3478.967927,-8882.471304,766.095498
601.649805,-3552.988522,-8512.368333,995.924147
601.650118,-3330.926739,-8660.409521,612.876398
601.650430,-3627.009116,-8882.471304,842.705048
601.650743,-3627.009116,-9104.533087,842.705048
601.651056,-3627.009116,-8956.491898,842.705048
601.651368,-3627.009116,-8882.471304,1072.533697
601.651681,-3330.926739,-8734.430116,689.485948
601.651993,-3034.844362,-8660.409521,689.485948
601.652306,-2960.823768,-8660.409521,842.705048
601.652618,-3330.926739,-9030.512492,995.924147
601.652931,-2960.823768,-8956.491898,842.705048
601.653243,-2960.823768,-9030.512492,842.705048
601.653556,-3034.844362,-8956.491898,919.314598
601.653868,-3034.844362,-8882.471304,842.705048
601.654181,-2812.782580,-9252.574275,1149.143247
601.654493,-2960.823768,-8956.491898,689.485948
601.654806,-2738.761985,-9178.553681,689.485948
601.655118,-2738.761985,-9474.636058,689.485948
601.655431,-3034.844362,-9400.615463,919.314598
601.655743,-2960.823768,-9326.594869,1149.143247
601.656056,-3182.885551,-9252.574275,1302.362347
601.656369,-3108.864956,-8734.430116,1225.752797
601.656681,-2812.782580,-8808.450710,995.924147
601.656994,-2960.823768,-8956.491898,995.924147
601.657306,-2516.700203,-8956.491898,1762.019645
601.657619,-3182.885551,-8660.409521,1378.971896
601.657931,-3330.926739,-8882.471304,1378.971896
601.658244,-3330.926739,-8956.491898,1608.800546
601.658556,-3478.967927,-9030.512492,1608.800546
601.658869,-3849.070898,-8586.388927,1149.143247
601.659181,-4219.173869,-8290.306550,459.657299
601.659494,-4071.132681,-8364.327145,842.705048
601.659806,-4071.132681,-8068.244768,1608.800546
601.660119,-4145.153275,-8216.285956,1149.143247
601.660431,-4441.235652,-8364.327145,1149.143247
601.660744,-4367.215058,-8364.327145,1302.362347
601.661056,-4071.132681,-8660.409521,1225.752797
601.661369,-4293.194464,-8660.409521,1302.362347
601.661682,-4145.153275,-8216.285956,1608.800546
601.661994,-4145.153275,-8142.265362,1378.971896
601.662307,-4071.132681,-8438.347739,995.924147
601.662619,-3923.091493,-8734.430116,1225.752797
601.662932,-3923.091493,-8734.430116,1225.752797
601.663244,-3552.988522,-8734.430116,1072.533697
601.663557,-3108.864956,-8808.450710,1455.581446
601.663869,-2960.823768,-8956.491898,1225.752797
601.664182,-2960.823768,-8734.430116,1149.143247
601.664494,-2590.720797,-9252.574275,1608.800546
601.664807,-2812.782580,-9252.574275,1532.190996
601.665119,-2590.720797,-9178.553681,1378.971896
601.665432,-2664.741391,-9178.553681,1072.533697
601.665744,-2960.823768,-9104.533087,1149.143247
601.666057,-2960.823768,-8882.471304,1225.752797
601.666369,-3108.864956,-8808.450710,1608.800546
601.666682,-3108.864956,-9326.594869,1455.581446
601.666995,-3552.988522,-9104.533087,1072.533697
601.667307,-3552.988522,-8882.471304,842.705048
601.667620,-3775.050304,-8882.471304,842.705048
601.667932,-3775.050304,-9030.512492,766.095498
601.668245,-4145.153275,-8808.450710,459.657299
601.668557,-3775.050304,-8216.285956,689.485948
601.668870,-4071.132681,-8660.409521,1225.752797
601.669182,-3627.009116,-8734.430116,995.924147
601.669495,-3849.070898,-8734.430116,842.705048
601.669807,-3997.112087,-8808.450710,689.485948
601.670120,-3701.029710,-8956.491898,383.047749
601.670432,-3849.070898,-8734.430116,612.876398
601.670745,-3849.070898,-8956.491898,1072.533697
601.671057,-4071.132681,-8438.347739,612.876398
601.671370,-3627.009116,-8660.409521,459.657299
601.671683,-3849.070898,-8364.327145,383.047749
601.671995,-4145.153275,-8734.430116,459.657299
601.672308,-3923.091493,-9030.512492,383.047749
601.672620,-4071.132681,-8808.450710,459.657299
601.672933,-4071.132681,-8882.471304,459.657299
601.673245,-4219.173869,-8660.409521,612.876398
601.673558,-3849.070898,-8438.347739,383.047749
601.673871,-3923.091493,-8438.347739,383.047749
601.674183,-4071.132681,-8512.368333,536.266849
601.674496,-4293.194464,-8512.368333,0.000000
601.674808,-4441.235652,-8512.368333,0.000000
601.675121,-4367.215058,-8586.388927,0.000000
601.675434,-4441.235652,-8512.368333,0.000000
601.675746,-4441.235652,-8142.265362,306.438199
601.676059,-4589.276840,-8290.306550,842.705048
601.676371,-4589.276840,-8290.306550,153.219100
601.676684,-4515.256246,-8438.347739,153.219100
601.676996,-4367.215058,-8660.409521,-229.828649
601.677309,-4515.256246,-8660.409521,0.000000
601.677622,-4515.256246,-8512.368333,0.000000
601.677934,-4515.256246,-8586.388927,0.000000
601.678247,-4219.173869,-8586.388927,0.000000
601.678559,-3849.070898,-8734.430116,842.705048
601.678872,-3997.112087,-8808.450710,153.219100
601.679184,-4071.132681,-8808.450710,229.828649
601.679497,-4293.194464,-8586.388927,0.000000
601.679810,-4071.132681,-8734.430116,0.000000
601.680122,-3923.091493,-8660.409521,76.609550
601.680435,-3997.112087,-8660.409521,229.828649
601.680747,-3552.988522,-8586.388927,536.266849
601.681060,-3701.029710,-8512.368333,153.219100
601.681372,-3775.050304,-8660.409521,306.438199
601.681685,-3627.009116,-9178.553681,459.657299
601.681998,-3923.091493,-8956.491898,459.657299
601.682310,-3627.009116,-8956.491898,459.657299
601.682623,-3478.967927,-8956.491898,383.047749
601.682935,-3330.926739,-9030.512492,459.657299
601.683248,-3182.885551,-9104.533087,459.657299
601.683561,-3034.844362,-9400.615463,536.266849
601.683873,-3182.885551,-8882.471304,229.828649
601.684186,-2960.823768,-9326.594869,689.485948
601.684498,-3182.885551,-9326.594869,842.705048
601.684811,-3182.885551,-9252.574275,995.924147
601.685123,-3108.864956,-9400.615463,1072.533697
601.685436,-3108.864956,-9030.512492,1149.143247
601.685749,-3256.906145,-9030.512492,842.705048
601.686061,-3256.906145,-8808.450710,612.876398
601.686374,-3108.864956,-8512.368333,1072.533697
601.686686,-3552.988522,-8734.430116,1225.752797
601.686999,-3552.988522,-8882.471304,1149.143247
601.687311,-3701.029710,-8660.409521,1225.752797
601.687624,-3923.091493,-8882.471304,1225.752797
601.687937,-3923.091493,-8216.285956,1378.971896
601.688249,-4071.132681,-8586.388927,1455.581446
601.688562,-3627.009116,-8438.347739,1608.800546
601.688874,-3997.112087,-8438.347739,1455.581446
601.689187,-4293.194464,-8586.388927,1149.143247
601.689499,-4145.153275,-8438.347739,919.314598
601.689812,-4145.153275,-8438.347739,1149.143247
601.690125,-4367.215058,-8512.368333,1378.971896
601.690437,-3849.070898,-8512.368333,1455.581446
601.690750,-3997.112087,-8586.388927,1608.800546
601.691062,-4441.235652,-8438.347739,1225.752797
601.691375,-3849.070898,-8216.285956,1455.581446
601.691688,-3997.112087,-8586.388927,1149.143247
601.692000,-3997.112087,-8512.368333,842.705048
601.692313,-3923.091493,-8512.368333,919.314598
601.692625,-4293.194464,-8364.327145,842.705048
601.692938,-4293.194464,-8216.285956,919.314598
601.693250,-4293.194464,-7846.182985,1072.533697
601.693563,-4293.194464,-8290.306550,689.485948
601.693876,-4145.153275,-8364.327145,306.438199
601.694188,-4219.173869,-8438.347739,459.657299
601.694501,-4441.235652,-8216.285956,689.485948
601.694813,-4441.235652,-8290.306550,612.876398
601.695126,-4367.215058,-8364.327145,383.047749
601.695438,-3775.050304,-8882.471304,153.219100
601.695751,-3849.070898,-8956.491898,766.095498
601.696064,-3552.988522,-8956.491898,995.924147
601.696376,-3627.009116,-8956.491898,689.485948
601.696689,-3701.029710,-8660.409521,612.876398
601.697001,-3330.926739,-9178.553681,536.266849
601.697314,-3330.926739,-9178.553681,153.219100
601.697626,-3256.906145,-8956.491898,153.219100
601.697939,-3330.926739,-8734.430116,306.438199
601.698252,-3256.906145,-9104.533087,459.657299
601.698564,-3775.050304,-8956.491898,689.485948
601.698877,-3775.050304,-9030.512492,383.047749
601.699189,-3701.029710,-9252.574275,229.828649
601.699502,-3849.070898,-9030.512492,229.828649
601.699815,-3923.091493,-8882.471304,0.000000
601.700127,-3552.988522,-8808.450710,0.000000
601.700440,-3849.070898,-8512.368333,0.000000
601.700752,-3478.967927,-8364.327145,306.438199
601.701065,-3775.050304,-8586.388927,536.266849
601.701377,-3627.009116,-8882.471304,0.000000
601.701690,-3775.050304,-9400.615463,229.828649
601.702003,-3775.050304,-9030.512492,229.828649
601.702315,-3330.926739,-9400.615463,-383.047749
601.702628,-3478.967927,-9252.574275,0.000000
601.702940,-4145.153275,-8142.265362,229.828649
601.703253,-3256.906145,-8734.430116,383.047749
601.703565,-3034.844362,-9030.512492,0.000000
601.703878,-3997.112087,-8882.471304,0.000000
601.704191,-4367.215058,-8586.388927,153.219100
601.704503,-3923.091493,-8438.347739,153.219100
601.704816,-3404.947333,-9104.533087,229.828649
601.705128,-3701.029710,-8882.471304,536.266849
601.705441,-4293.194464,-8142.265362,0.000000
601.705754,-4737.318029,-8586.388927,76.609550
601.706066,-4663.297435,-8882.471304,1302.362347
601.706379,-3923.091493,-8290.306550,383.047749
601.706691,-3997.112087,-8808.450710,306.438199
601.707004,-4071.132681,-8734.430116,76.609550
601.707316,-3997.112087,-8660.409521,153.219100
601.707629,-3997.112087,-8882.471304,1149.143247
601.707942,-4589.276840,-8660.409521,1378.971896
601.708254,-4071.132681,-8808.450710,1302.362347
601.708567,-4663.297435,-8512.368333,995.924147
601.708879,-4737.318029,-8586.388927,689.485948
601.709192,-4441.235652,-8660.409521,536.266849
601.709504,-4219.173869,-8438.347739,536.266849
601.709817,-4441.235652,-8142.265362,766.095498
601.710130,-4441.235652,-8290.306550,612.876398
601.710442,-3923.091493,-8734.430116,1915.238745
601.710755,-3923.091493,-8660.409521,1302.362347
601.711067,-3997.112087,-8956.491898,1149.143247
601.711380,-3701.029710,-8660.409521,995.924147
601.711692,-3552.988522,-8808.450710,842.705048
601.712005,-3330.926739,-9252.574275,1149.143247
601.712318,-2960.823768,-8882.471304,1762.019645
601.712630,-2812.782580,-8956.491898,1762.019645
601.712943,-2886.803174,-9030.512492,1378.971896
601.713255,-3034.844362,-8882.471304,1532.190996
601.713568,-3182.885551,-8956.491898,1225.752797
601.713881,-3108.864956,-9104.533087,1608.800546
601.714193,-3182.885551,-8882.471304,1302.362347
601.714506,-3330.926739,-8808.450710,842.705048
601.714818,-2738.761985,-9104.533087,1149.143247
601.715131,-3552.988522,-8660.409521,842.705048
601.715443,-3923.091493,-8660.409521,995.924147
601.715756,-4441.235652,-8438.347739,919.314598
601.716069,-4441.235652,-8364.327145,1072.533697
601.716381,-3701.029710,-8364.327145,383.047749
601.716694,-3478.967927,-8660.409521,0.000000
601.717006,-3775.050304,-8586.388927,229.828649
601.717319,-3627.009116,-8586.388927,919.314598
601.717631,-3775.050304,-8734.430116,1378.971896
601.717944,-3627.009116,-9178.553681,1149.143247
601.718257,-3478.967927,-8882.471304,612.876398
601.718569,-3330.926739,-9178.553681,306.438199
601.718882,-3701.029710,-9400.615463,459.657299
601.719194,-3923.091493,-9030.512492,536.266849
601.719507,-3552.988522,-8438.347739,1072.533697
601.719819,-3330.926739,-8956.491898,842.705048
601.720132,-3404.947333,-8882.471304,1149.143247
601.720445,-4219.173869,-8216.285956,995.924147
601.720757,-4441.235652,-8586.388927,536.266849
601.721070,-3849.070898,-8882.471304,536.266849
601.721382,-4071.132681,-8956.491898,153.219100
601.721695,-4589.276840,-8438.347739,306.438199
601.722008,-4293.194464,-8290.306550,766.095498
601.722320,-3849.070898,-8660.409521,689.485948
601.722633,-4367.215058,-9030.512492,842.705048
601.722945,-4589.276840,-8586.388927,306.438199
601.723258,-3997.112087,-8512.368333,536.266849
601.723570,-3849.070898,-8882.471304,536.266849
601.723883,-3701.029710,-9104.533087,689.485948
601.724196,-3849.070898,-8808.450710,612.876398
601.724508,-3997.112087,-8586.388927,842.705048
601.724821,-4145.153275,-8290.306550,766.095498
601.725133,-3627.009116,-9104.533087,0.000000
601.725446,-3552.988522,-8512.368333,459.657299
601.725758,-4441.235652,-8808.450710,459.657299
601.726071,-4663.297435,-8364.327145,76.609550
601.726384,-4145.153275,-8438.347739,0.000000
601.726696,-4145.153275,-8808.450710,0.000000
601.727009,-4663.297435,-8364.327145,689.485948
601.727321,-4663.297435,-8290.306550,689.485948
601.727634,-4515.256246,-8142.265362,229.828649
601.727946,-4293.194464,-8808.450710,0.000000
601.728259,-4219.173869,-8808.450710,0.000000
601.728572,-4515.256246,-8216.285956,383.047749
601.728884,-4663.297435,-8364.327145,995.924147
601.729197,-4441.235652,-8586.388927,1149.143247
601.729509,-4219.173869,-8586.388927,0.000000
601.729822,-4367.215058,-8216.285956,-306.438199
601.730135,-4145.153275,-8216.285956,0.000000
601.730447,-4515.256246,-8364.327145,306.438199
601.730760,-4589.276840,-8438.347739,306.438199
601.731072,-4293.194464,-8586.388927,229.828649
601.731385,-3923.091493,-8734.430116,76.609550
601.731697,-4071.132681,-8438.347739,689.485948
601.732010,-4071.132681,-8216.285956,536.266849
601.732323,-3330.926739,-8956.491898,306.438199
601.732635,-3256.906145,-9030.512492,842.705048
601.732948,-3627.009116,-8882.471304,766.095498
601.733260,-3330.926739,-9178.553681,459.657299
601.733573,-3478.967927,-9178.553681,229.828649
601.733885,-3552.988522,-9178.553681,536.266849
601.734198,-3627.009116,-8956.491898,76.609550
601.734511,-3552.988522,-9178.553681,536.266849
601.734823,-3404.947333,-9326.594869,612.876398
601.735136,-3552.988522,-9104.533087,919.314598
601.735448,-3775.050304,-8734.430116,536.266849
601.735761,-3404.947333,-8808.450710,612.876398
601.736073,-3849.070898,-9030.512492,459.657299
601.736386,-3627.009116,-8586.388927,536.266849
601.736699,-3627.009116,-8512.368333,612.876398
601.737011,-3627.009116,-8586.388927,842.705048
601.737324,-3701.029710,-8512.368333,842.705048
601.737636,-3923.091493,-8808.450710,919.314598
601.737949,-3849.070898,-9030.512492,995.924147
601.738262,-3701.029710,-9030.512492,766.095498
601.738574,-3849.070898,-8956.491898,306.438199
601.738887,-3997.112087,-8734.430116,689.485948
601.739199,-3849.070898,-8660.409521,536.266849
601.739512,-3627.009116,-8734.430116,1378.971896
601.739824,-4071.132681,-8290.306550,1225.752797
601.740137,-4071.132681,-8512.368333,1072.533697
601.740450,-3701.029710,-8734.430116,995.924147
601.740762,-3775.050304,-8808.450710,919.314598
601.741075,-3923.091493,-8734.430116,919.314598
601.741387,-3849.070898,-8364.327145,995.924147
601.741700,-3775.050304,-8734.430116,766.095498
601.742012,-3701.029710,-8512.368333,919.314598
601.742325,-3701.029710,-8364.327145,919.314598
601.742638,-3923.091493,-8512.368333,612.876398
601.742950,-3923.091493,-8512.368333,536.266849
601.743263,-3701.029710,-8586.388927,766.095498
601.743575,-3627.009116,-8512.368333,1149.143247
601.743888,-3182.885551,-8956.491898,1762.019645
601.744201,-3775.050304,-8512.368333,1532.190996
601.744513,-3627.009116,-8734.430116,1532.190996
601.744826,-3701.029710,-8808.450710,1072.533697
601.745138,-3627.009116,-8734.430116,842.705048
601.745451,-3923.091493,-8734.430116,612.876398
601.745763,-3849.070898,-8660.409521,995.924147
601.746076,-3849.070898,-8808.450710,766.095498
601.746389,-3923.091493,-8586.388927,995.924147
601.746701,-3775.050304,-8438.347739,1149.143247
601.747014,-4219.173869,-8734.430116,1149.143247
601.747326,-4219.173869,-8808.450710,842.705048
601.747639,-4367.215058,-8660.409521,689.485948
601.747951,-3997.112087,-8734.430116,612.876398
601.748264,-4219.173869,-8586.388927,612.876398
601.748577,-4219.173869,-8438.347739,612.876398
601.748889,-4219.173869,-8512.368333,689.485948
601.749202,-3923.091493,-8438.347739,689.485948
601.749514,-4219.173869,-8512.368333,612.876398
601.749827,-4515.256246,-8586.388927,383.047749
601.750139,-4293.194464,-8512.368333,306.438199
601.750452,-4367.215058,-8660.409521,459.657299
601.750765,-4219.173869,-8734.430116,383.047749
601.751077,-4367.215058,-8660.409521,536.266849
601.751390,-4071.132681,-8808.450710,459.657299
601.751702,-4441.235652,-8956.491898,689.485948
601.752015,-3627.009116,-8808.450710,612.876398
601.752328,-3997.112087,-8882.471304,76.609550
601.752640,-3404.947333,-9104.533087,153.219100
601.752953,-3552.988522,-8882.471304,459.657299
601.753265,-3627.009116,-8808.450710,689.485948
601.753578,-3330.926739,-8956.491898,995.924147
601.753890,-3256.906145,-8734.430116,842.705048
601.754203,-3256.906145,-9104.533087,689.485948
601.754516,-3701.029710,-8364.327145,153.219100
601.754828,-3627.009116,-8808.450710,229.828649
601.755141,-3552.988522,-8808.450710,229.828649
601.755453,-3478.967927,-9104.533087,383.047749
601.755766,-3775.050304,-8956.491898,306.438199
601.756078,-4071.132681,-9178.553681,0.000000
601.756391,-3849.070898,-9030.512492,76.609550
601.756704,-4071.132681,-8512.368333,383.047749
601.757016,-3923.091493,-8660.409521,383.047749
601.757329,-4219.173869,-8734.430116,0.000000
601.757641,-4219.173869,-8808.450710,153.219100
601.757954,-4145.153275,-8586.388927,0.000000
601.758266,-4145.153275,-8808.450710,229.828649
601.758579,-3849.070898,-8660.409521,0.000000
601.758892,-3997.112087,-9030.512492,766.095498
601.759204,-4219.173869,-8660.409521,919.314598
601.759517,-4219.173869,-8808.450710,612.876398
601.759829,-3923.091493,-9104.533087,536.266849
601.760142,-3775.050304,-9030.512492,459.657299
601.760455,-3775.050304,-8956.491898,459.657299
601.760767,-3552.988522,-9104.533087,995.924147
601.761080,-2886.803174,-8734.430116,842.705048
601.761392,-2812.782580,-8882.471304,842.705048
601.761705,-2516.700203,-9252.574275,1149.143247
601.762017,-3034.844362,-9326.594869,1302.362347
601.762330,-2590.720797,-9178.553681,1072.533697
601.762643,-2590.720797,-9400.615463,1378.971896
601.762955,-2960.823768,-9400.615463,1455.581446
601.763268,-2664.741391,-8956.491898,1378.971896
601.763580,-2368.659014,-8808.450710,1991.848295
601.763893,-2368.659014,-9178.553681,1915.238745
601.764205,-2812.782580,-9326.594869,1378.971896
601.764518,-2886.803174,-8956.491898,1455.581446
601.764831,-2664.741391,-9104.533087,1915.238745
601.765143,-2664.741391,-9178.553681,1915.238745
601.765456,-2812.782580,-8956.491898,2145.067394
601.765768,-3034.844362,-8808.450710,1991.848295
601.766081,-3330.926739,-8956.491898,2068.457845
601.766393,-2960.823768,-8438.347739,2604.724693
601.766706,-3256.906145,-8364.327145,2374.896044
601.767019,-3552.988522,-8660.409521,1838.629195
601.767331,-3701.029710,-8586.388927,1991.848295
601.767644,-3849.070898,-8586.388927,2145.067394
601.767956,-3849.070898,-8586.388927,1532.190996
601.768269,-4145.153275,-8586.388927,2451.505594
601.768582,-3627.009116,-8068.244768,1608.800546
601.768894,-3627.009116,-8290.306550,1762.019645
601.769207,-3701.029710,-8216.285956,2145.067394
601.769519,-3478.967927,-8512.368333,1991.848295
601.769832,-3330.926739,-8660.409521,2374.896044
601.770144,-3182.885551,-8586.388927,2221.676944
601.770457,-3108.864956,-8734.430116,2451.505594
601.770770,-3330.926739,-8586.388927,2374.896044
601.771082,-3330.926739,-8438.347739,2298.286494
601.771395,-3330.926739,-8142.265362,1608.800546
601.771707,-3404.947333,-8586.388927,1608.800546
601.772020,-3627.009116,-8734.430116,1302.362347
601.772333,-3627.009116,-8438.347739,1225.752797
601.772645,-3849.070898,-8364.327145,1225.752797
601.772958,-3849.070898,-8660.409521,842.705048
601.773270,-3775.050304,-8364.327145,1455.581446
601.773583,-3404.947333,-8586.388927,1378.971896
601.773896,-3256.906145,-8660.409521,766.095498
601.774208,-3552.988522,-9030.512492,766.095498
601.774521,-3478.967927,-9030.512492,1225.752797
601.774833,-3182.885551,-9104.533087,689.485948
601.775146,-3256.906145,-8956.491898,766.095498
601.775459,-3108.864956,-8734.430116,766.095498
601.775771,-3330.926739,-8956.491898,995.924147
601.776084,-3034.844362,-9030.512492,1685.410096
601.776396,-3330.926739,-9178.553681,1302.362347
601.776709,-3108.864956,-9400.615463,1149.143247
601.777022,-3404.947333,-9326.594869,612.876398
601.777334,-3404.947333,-9104.533087,842.705048
601.777647,-3330.926739,-9104.533087,459.657299
601.777959,-3404.947333,-8512.368333,1072.533697
601.778272,-3404.947333,-8956.491898,306.438199
601.778585,-3330.926739,-8734.430116,536.266849
601.778897,-3330.926739,-8956.491898,459.657299
601.779210,-3404.947333,-8956.491898,536.266849
601.779523,-3330.926739,-9030.512492,306.438199
601.779835,-3478.967927,-8956.491898,383.047749
601.780148,-3108.864956,-9400.615463,0.000000
601.780460,-3034.844362,-9104.533087,689.485948
601.780773,-3108.864956,-8438.347739,536.266849
601.781086,-3034.844362,-9104.533087,229.828649
601.781398,-2886.803174,-9104.533087,536.266849
601.781711,-2886.803174,-9252.574275,306.438199
601.782023,-3182.885551,-9104.533087,536.266849
601.782336,-3256.906145,-9104.533087,766.095498
601.782649,-2738.761985,-9178.553681,1072.533697
601.782961,-3034.844362,-8956.491898,766.095498
601.783274,-2516.700203,-9252.574275,689.485948
601.783586,-2960.823768,-9178.553681,995.924147
601.783899,-3478.967927,-9178.553681,766.095498
601.784212,-3404.947333,-8956.491898,919.314598
601.784524,-3552.988522,-9104.533087,919.314598
601.784837,-3552.988522,-9030.512492,842.705048
601.785149,-3552.988522,-8882.471304,1378.971896
601.785462,-3034.844362,-9178.553681,842.705048
601.785775,-3256.906145,-8512.368333,1072.533697
601.786087,-3627.009116,-8882.471304,1225.752797
601.786400,-3552.988522,-8734.430116,1225.752797
601.786712,-3627.009116,-8734.430116,1378.971896
601.787025,-3701.029710,-8734.430116,1302.362347
601.787338,-3552.988522,-8808.450710,1762.019645
601.787650,-3478.967927,-8808.450710,1762.019645
601.787963,-3404.947333,-8586.388927,1762.019645
601.788276,-3627.009116,-8586.388927,1608.800546
601.788588,-3701.029710,-8660.409521,1455.581446
601.788901,-3627.009116,-8734.430116,1608.800546
601.789213,-3478.967927,-8808.450710,1455.581446
601.789526,-3330.926739,-8808.450710,1532.190996
601.789839,-3404.947333,-8956.491898,1991.848295
601.790151,-3627.009116,-8512.368333,2145.067394
601.790464,-3182.885551,-8364.327145,1762.019645
601.790776,-3256.906145,-8882.471304,1991.848295
601.791089,-3478.967927,-8586.388927,1532.190996
601.791402,-3330.926739,-8586.388927,1838.629195
601.791714,-3552.988522,-8586.388927,1915.238745
601.792027,-3478.967927,-8512.368333,1838.629195
601.792339,-3478.967927,-8660.409521,1685.410096
601.792652,-3330.926739,-8956.491898,1608.800546
601.792965,-3849.070898,-8512.368333,1762.019645
601.793277,-3701.029710,-8808.450710,1762.019645
601.793590,-2960.823768,-8808.450710,1532.190996
601.793902,-3330.926739,-9104.533087,1838.629195
601.794215,-3108.864956,-8734.430116,1915.238745
601.794528,-2368.659014,-8882.471304,1608.800546
601.794840,-2738.761985,-8734.430116,1762.019645
601.795153,-3182.885551,-8808.450710,1838.629195
601.795465,-2516.700203,-8734.430116,2221.676944
601.795778,-2146.597232,-9400.615463,1302.362347
601.796091,-3108.864956,-9104.533087,1455.581446
601.796403,-3849.070898,-8734.430116,1455.581446
601.796716,-3478.967927,-8734.430116,1532.190996
601.797028,-3108.864956,-9178.553681,1378.971896
601.797341,-2960.823768,-8956.491898,919.314598
601.797654,-3330.926739,-8364.327145,842.705048
601.797966,-3701.029710,-8882.471304,1225.752797
601.798279,-4071.132681,-8586.388927,1532.190996
601.798592,-3108.864956,-8734.430116,1532.190996
601.798904,-3182.885551,-8586.388927,842.705048
601.799217,-3627.009116,-9104.533087,459.657299
601.799529,-3552.988522,-8956.491898,383.047749
601.799842,-2960.823768,-8956.491898,766.095498
601.800155,-2738.761985,-9178.553681,1532.190996
601.800467,-3330.926739,-9030.512492,1225.752797
601.800780,-3923.091493,-8808.450710,919.314598
601.801092,-4145.153275,-9178.553681,919.314598
601.801405,-3849.070898,-9252.574275,459.657299
601.801718,-3627.009116,-8734.430116,0.000000
601.802030,-3627.009116,-8882.471304,-306.438199
601.802343,-4219.173869,-8586.388927,-229.828649
601.802655,-4145.153275,-8882.471304,766.095498
601.802968,-3330.926739,-9030.512492,1378.971896
601.803281,-3923.091493,-9030.512492,995.924147
601.803593,-4145.153275,-9030.512492,536.266849
601.803906,-3627.009116,-9178.553681,306.438199
601.804218,-3627.009116,-9622.677246,153.219100
601.804531,-3256.906145,-9326.594869,919.314598
601.804844,-3552.988522,-8808.450710,766.095498
601.805156,-3552.988522,-8882.471304,995.924147
601.805469,-3034.844362,-8882.471304,1149.143247
601.805781,-2664.741391,-9474.636058,995.924147
601.806094,-3034.844362,-9252.574275,1302.362347
601.806407,-3849.070898,-9178.553681,1608.800546
601.806719,-3552.988522,-8956.491898,1072.533697
601.807032,-3552.988522,-8586.388927,1608.800546
601.807345,-3775.050304,-8586.388927,1378.971896
601.807657,-4071.132681,-8290.306550,1302.362347
601.807970,-4145.153275,-8438.347739,842.705048
601.808282,-3923.091493,-8660.409521,536.266849
601.808595,-3552.988522,-8512.368333,842.705048
601.808908,-3849.070898,-8586.388927,919.314598
601.809220,-4071.132681,-8808.450710,1685.410096
601.809533,-3849.070898,-8882.471304,1149.143247
601.809845,-3256.906145,-8734.430116,1302.362347
601.810158,-3034.844362,-9030.512492,459.657299
601.810471,-2886.803174,-8882.471304,689.485948
601.810783,-2960.823768,-9030.512492,919.314598
601.811096,-3404.947333,-8808.450710,2068.457845
601.811408,-3330.926739,-8956.491898,1991.848295
601.811721,-2738.761985,-8808.450710,1915.238745
601.812034,-3478.967927,-8956.491898,1762.019645
601.812346,-4145.153275,-8364.327145,689.485948
601.812659,-3701.029710,-8438.347739,1072.533697
601.812971,-3256.906145,-8808.450710,536.266849
601.813284,-3627.009116,-8660.409521,842.705048
601.813597,-4293.194464,-8438.347739,995.924147
601.813909,-3701.029710,-8586.388927,1225.752797
601.814222,-3330.926739,-9252.574275,1532.190996
601.814534,-3923.091493,-8734.430116,1455.581446
601.814847,-4145.153275,-8660.409521,1072.533697
601.815160,-3330.926739,-9030.512492,689.485948
601.815472,-3256.906145,-9104.533087,1225.752797
601.815785,-3182.885551,-8956.491898,1455.581446
601.816097,-3182.885551,-8808.450710,1455.581446
601.816410,-3256.906145,-9326.594869,1762.019645
601.816723,-3478.967927,-9178.553681,1762.019645
601.817035,-3330.926739,-8660.409521,459.657299
601.817348,-3478.967927,-9474.636058,1378.971896
601.817661,-3330.926739,-9400.615463,1608.800546
601.817973,-3330.926739,-8956.491898,1072.533697
601.818286,-3256.906145,-9030.512492,1225.752797
601.818598,-3627.009116,-8882.471304,1225.752797
601.818911,-3701.029710,-8586.388927,1762.019645
601.819224,-3256.906145,-8734.430116,1302.362347
601.819536,-3330.926739,-9030.512492,995.924147
601.819849,-2960.823768,-9030.512492,842.705048
601.820161,-2886.803174,-9104.533087,1378.971896
601.820474,-2664.741391,-9326.594869,1762.019645
601.820787,-2664.741391,-9474.636058,2068.457845
601.821099,-2220.617826,-9400.615463,1991.848295
601.821412,-2368.659014,-9474.636058,1455.581446
601.821724,-2294.638420,-8956.491898,1302.362347
601.822037,-1776.494261,-8734.430116,1225.752797
601.822350,-1924.535449,-8956.491898,1685.410096
601.822662,-2664.741391,-8956.491898,2221.676944
601.822975,-2516.700203,-8956.491898,2068.457845
601.823287,-2590.720797,-9400.615463,1532.190996
601.823600,-3034.844362,-9178.553681,1608.800546
601.823913,-3478.967927,-9030.512492,1302.362347
601.824225,-3478.967927,-8512.368333,1378.971896
601.824538,-3330.926739,-9178.553681,1532.190996
601.824850,-3256.906145,-8808.450710,1608.800546
601.825163,-3552.988522,-8586.388927,1302.362347
601.825476,-3627.009116,-8438.347739,1455.581446
601.825788,-3701.029710,-8660.409521,1302.362347
601.826101,-3478.967927,-8660.409521,1762.019645
601.826414,-3552.988522,-8808.450710,842.705048
601.826726,-3330.926739,-8734.430116,1149.143247
601.827039,-3627.009116,-8734.430116,1302.362347
601.827351,-3034.844362,-8586.388927,1532.190996
601.827664,-3182.885551,-9030.512492,1685.410096
601.827977,-3701.029710,-8956.491898,1532.190996
601.828289,-3627.009116,-9030.512492,1225.752797
601.828602,-3552.988522,-8586.388927,1455.581446
601.828914,-3330.926739,-8882.471304,1302.362347
601.829227,-3627.009116,-9400.615463,1072.533697
601.829540,-3701.029710,-8808.450710,1225.752797
601.829852,-3478.967927,-8734.430116,1225.752797
601.830165,-3478.967927,-8956.491898,1072.533697
601.830477,-3627.009116,-8882.471304,1149.143247
601.830790,-3701.029710,-9178.553681,1149.143247
601.831103,-3552.988522,-8660.409521,1608.800546
601.831415,-3256.906145,-8956.491898,1608.800546
601.831728,-3330.926739,-8956.491898,1225.752797
601.832040,-3330.926739,-8734.430116,1225.752797
601.832353,-3256.906145,-8956.491898,919.314598
601.832666,-3627.009116,-8882.471304,1072.533697
601.832978,-3478.967927,-8956.491898,1072.533697
601.833291,-3404.947333,-9104.533087,1072.533697
601.833603,-3701.029710,-8660.409521,1455.581446
601.833916,-3701.029710,-8734.430116,842.705048
601.834229,-3552.988522,-8956.491898,689.485948
601.834541,-3701.029710,-8808.450710,689.485948
601.834854,-3701.029710,-8808.450710,536.266849
601.835166,-3552.988522,-8882.471304,919.314598
601.835479,-3330.926739,-8660.409521,995.924147
601.835792,-3256.906145,-8956.491898,842.705048
601.836104,-3330.926739,-8882.471304,1455.581446
601.836417,-3108.864956,-9104.533087,919.314598
601.836730,-2886.803174,-9104.533087,842.705048
601.837042,-2886.803174,-9104.533087,459.657299
601.837355,-2886.803174,-9104.533087,766.095498
601.837667,-3034.844362,-8882.471304,1149.143247
601.837980,-2812.782580,-9104.533087,1149.143247
601.838293,-2442.679609,-8956.491898,1149.143247
601.838605,-2886.803174,-9178.553681,1225.752797
601.838918,-2812.782580,-9104.533087,1532.190996
601.839230,-2886.803174,-8586.388927,842.705048
601.839543,-3034.844362,-8882.471304,842.705048
601.839856,-3182.885551,-9178.553681,995.924147
601.840168,-3182.885551,-9030.512492,1072.533697
601.840481,-3034.844362,-8956.491898,842.705048
601.840793,-3108.864956,-8956.491898,995.924147
601.841106,-3182.885551,-9326.594869,1072.533697
601.841419,-2812.782580,-9326.594869,1608.800546
601.841731,-2812.782580,-9474.636058,1532.190996
601.842044,-2960.823768,-9178.553681,1378.971896
601.842356,-2886.803174,-9178.553681,1455.581446
601.842669,-3182.885551,-9104.533087,1302.362347
601.842982,-3404.947333,-9030.512492,1225.752797
601.843294,-3627.009116,-9104.533087,1378.971896
601.843607,-4219.173869,-8290.306550,1149.143247
601.843919,-3997.112087,-8882.471304,842.705048
601.844232,-3923.091493,-8290.306550,229.828649
601.844545,-4515.256246,-8364.327145,842.705048
601.844857,-4515.256246,-8512.368333,1302.362347
601.845170,-4367.215058,-8512.368333,1149.143247
601.845483,-4441.235652,-8512.368333,1455.581446
601.845795,-3997.112087,-8586.388927,1302.362347
601.846108,-4145.153275,-8512.368333,383.047749
601.846420,-3997.112087,-8364.327145,1378.971896
601.846733,-3849.070898,-8216.285956,1072.533697
601.847046,-3552.988522,-8512.368333,1225.752797
601.847358,-3478.967927,-8808.450710,1608.800546
601.847671,-3330.926739,-8956.491898,1762.019645
601.847983,-2664.741391,-9400.615463,1838.629195
601.848296,-2738.761985,-9252.574275,1915.238745
601.848609,-3182.885551,-8438.347739,1532.190996
601.848921,-3034.844362,-8808.450710,1225.752797
601.849234,-2738.761985,-8956.491898,1455.581446
601.849546,-3108.864956,-8882.471304,1532.190996
601.849859,-3256.906145,-8808.450710,1378.971896
601.850172,-3330.926739,-8808.450710,1455.581446
601.850484,-3034.844362,-8882.471304,995.924147
601.850797,-3256.906145,-8956.491898,1302.362347
601.851109,-3256.906145,-8512.368333,1149.143247
601.851422,-3552.988522,-8734.430116,2145.067394
601.851735,-3849.070898,-8956.491898,919.314598
601.852047,-3404.947333,-8808.450710,842.705048
601.852360,-3627.009116,-8290.306550,766.095498
601.852672,-3775.050304,-8586.388927,1072.533697
601.852985,-4071.132681,-8068.244768,459.657299
601.853298,-3552.988522,-8438.347739,1149.143247
601.853610,-4071.132681,-8290.306550,1762.019645
601.853923,-4071.132681,-8586.388927,919.314598
601.854235,-3997.112087,-8956.491898,536.266849
601.854548,-4441.235652,-8808.450710,229.828649
601.854861,-4515.256246,-8808.450710,536.266849
601.855173,-4071.132681,-8882.471304,536.266849
601.855486,-3701.029710,-8808.450710,383.047749
601.855799,-3997.112087,-8512.368333,459.657299
601.856111,-3478.967927,-8734.430116,536.266849
601.856424,-3108.864956,-9030.512492,536.266849
601.856736,-3478.967927,-9104.533087,612.876398
601.857049,-3478.967927,-9104.533087,536.266849
601.857362,-3552.988522,-8734.430116,612.876398
601.857674,-3627.009116,-9030.512492,306.438199
601.857987,-3775.050304,-8364.327145,383.047749
601.858299,-4293.194464,-8586.388927,306.438199
601.858612,-4589.276840,-8660.409521,459.657299
601.858925,-4515.256246,-8660.409521,-153.219100
601.859237,-4737.318029,-8364.327145,-229.828649
601.859550,-4737.318029,-8438.347739,0.000000
601.859862,-4737.318029,-8734.430116,76.609550
601.860175,-4737.318029,-8216.285956,153.219100
601.860488,-4589.276840,-8512.368333,0.000000
601.860800,-4367.215058,-8364.327145,0.000000
601.861113,-4441.235652,-8290.306550,-383.047749
601.861425,-4367.215058,-8586.388927,-229.828649
601.861738,-4219.173869,-8660.409521,0.000000
601.862051,-3849.070898,-8734.430116,0.000000
601.862363,-3923.091493,-8882.471304,153.219100
601.862676,-3923.091493,-8808.450710,383.047749
601.862988,-4219.173869,-8808.450710,536.266849
601.863301,-3923.091493,-8956.491898,0.000000
601.863614,-4219.173869,-8882.471304,-153.219100
601.863926,-4219.173869,-8956.491898,-229.828649
601.864239,-4293.194464,-8512.368333,-306.438199
601.864552,-4293.194464,-8364.327145,0.000000
601.864864,-4071.132681,-8586.388927,76.609550
601.865177,-4293.194464,-8438.347739,153.219100
601.865489,-3478.967927,-8882.471304,0.000000
601.865802,-3330.926739,-8956.491898,153.219100
601.866115,-3404.947333,-8882.471304,306.438199
601.866427,-3404.947333,-9030.512492,459.657299
601.866740,-3330.926739,-9178.553681,536.266849
601.867052,-3478.967927,-9030.512492,536.266849
601.867365,-3330.926739,-8956.491898,383.047749
601.867678,-3256.906145,-8882.471304,842.705048
601.867990,-2812.782580,-9178.553681,383.047749
601.868303,-2960.823768,-9400.615463,919.314598
601.868615,-3256.906145,-9326.594869,766.095498
601.868928,-3552.988522,-8882.471304,612.876398
601.869241,-3404.947333,-8882.471304,842.705048
601.869553,-3627.009116,-8808.450710,1149.143247
601.869866,-3923.091493,-8660.409521,1072.533697
601.870178,-3701.029710,-8512.368333,229.828649
601.870491,-4145.153275,-8882.471304,536.266849
601.870804,-3849.070898,-8882.471304,1225.752797
601.871116,-3701.029710,-8734.430116,995.924147
601.871429,-3849.070898,-8808.450710,1378.971896
601.871741,-3923.091493,-8808.450710,1225.752797
601.872054,-3923.091493,-9030.512492,1378.971896
601.872366,-3849.070898,-8512.368333,1149.143247
601.872679,-3701.029710,-8956.491898,1378.971896
601.872991,-3627.009116,-8290.306550,1608.800546
601.873304,-3997.112087,-8586.388927,1149.143247
601.873616,-4071.132681,-8438.347739,1302.362347
601.873929,-3849.070898,-8290.306550,1225.752797
601.874241,-4071.132681,-8364.327145,1532.190996
601.874554,-4071.132681,-8290.306550,1532.190996
601.874867,-4219.173869,-8364.327145,1608.800546
601.875179,-4293.194464,-8586.388927,1532.190996
601.875492,-4293.194464,-8216.285956,1302.362347
601.875804,-4589.276840,-8438.347739,689.485948
601.876117,-4367.215058,-7698.141797,1455.581446
601.876429,-4145.153275,-8438.347739,766.095498
601.876742,-4071.132681,-8660.409521,1149.143247
601.877054,-3997.112087,-8660.409521,1149.143247
601.877367,-4293.194464,-8512.368333,1302.362347
601.877679,-4145.153275,-8438.347739,842.705048
601.877992,-3478.967927,-8216.285956,1532.190996
601.878304,-3849.070898,-8438.347739,842.705048
601.878617,-3997.112087,-8660.409521,1225.752797
601.878929,-3923.091493,-8586.388927,612.876398
601.879242,-3923.091493,-8586.388927,612.876398
601.879554,-3849.070898,-8586.388927,536.266849
601.879867,-4293.194464,-8660.409521,536.266849
601.880179,-4071.132681,-8290.306550,153.219100
601.880492,-3923.091493,-8882.471304,459.657299
601.880804,-3849.070898,-8734.430116,383.047749
601.881117,-3849.070898,-8882.471304,383.047749
601.881430,-3849.070898,-8956.491898,76.609550
601.881742,-3775.050304,-8808.450710,0.000000
601.882055,-3701.029710,-9030.512492,229.828649
601.882367,-3701.029710,-9178.553681,76.609550
601.882680,-3552.988522,-8956.491898,383.047749
601.882992,-3404.947333,-9326.594869,1072.533697
601.883305,-3404.947333,-9030.512492,229.828649
601.883617,-3627.009116,-9326.594869,229.828649
601.883930,-3478.967927,-9252.574275,76.609550
601.884242,-3404.947333,-8956.491898,-306.438199
601.884555,-4145.153275,-9104.533087,76.609550
601.884867,-4071.132681,-8808.450710,0.000000
601.885180,-3182.885551,-8512.368333,0.000000
601.885492,-4441.235652,-8660.409521,536.266849
601.885805,-4515.256246,-8586.388927,536.266849
601.886117,-3997.112087,-8734.430116,0.000000
601.886430,-3256.906145,-9252.574275,-229.828649
601.886742,-3923.091493,-9104.533087,0.000000
601.887055,-4293.194464,-8882.471304,306.438199
601.887367,-3923.091493,-8586.388927,995.924147
601.887680,-3552.988522,-8808.450710,689.485948
601.887992,-3404.947333,-8956.491898,0.000000
601.888305,-3775.050304,-8660.409521,-459.657299
601.888618,-4145.153275,-8660.409521,383.047749
601.888930,-3923.091493,-8882.471304,689.485948
601.889243,-3627.009116,-8808.450710,612.876398
601.889555,-4071.132681,-8586.388927,459.657299
601.889868,-4219.173869,-8660.409521,153.219100
601.890180,-3775.050304,-8734.430116,76.609550
601.890493,-3701.029710,-8512.368333,536.266849
601.890805,-4589.276840,-8438.347739,766.095498
601.891118,-4663.297435,-8734.430116,995.924147
601.891430,-4293.194464,-8660.409521,1072.533697
601.891743,-4293.194464,-8660.409521,689.485948
601.892055,-4367.215058,-8734.430116,689.485948
601.892368,-3997.112087,-8216.285956,306.438199
601.892680,-4219.173869,-8364.327145,919.314598
601.892993,-3997.112087,-8364.327145,1225.752797
601.893305,-3701.029710,-8364.327145,689.485948
601.893618,-3923.091493,-8438.347739,919.314598
601.893930,-4293.194464,-8586.388927,1532.190996
601.894243,-3775.050304,-8808.450710,1302.362347
601.894555,-3627.009116,-8586.388927,1225.752797
601.894868,-3552.988522,-9030.512492,995.924147
601.895181,-3182.885551,-8808.450710,1838.629195
601.895493,-3256.906145,-8216.285956,1225.752797
601.895806,-3256.906145,-8660.409521,1302.362347
601.896118,-3108.864956,-8882.471304,1225.752797
601.896431,-3182.885551,-8808.450710,1225.752797
601.896743,-3256.906145,-8808.450710,1455.581446
601.897056,-3552.988522,-8808.450710,1915.238745
601.897368,-3330.926739,-8660.409521,1302.362347
601.897681,-4071.132681,-8290.306550,1455.581446
601.897993,-3701.029710,-8142.265362,842.705048
601.898306,-3182.885551,-8364.327145,689.485948
601.898618,-3478.967927,-8438.347739,459.657299
601.898931,-3627.009116,-8660.409521,766.095498
601.899243,-3330.926739,-8808.450710,995.924147
601.899556,-3552.988522,-9178.553681,1072.533697
601.899868,-3775.050304,-8586.388927,1532.190996
601.900181,-3627.009116,-8364.327145,1149.143247
601.900493,-2886.803174,-8808.450710,459.657299
601.900806,-3330.926739,-9252.574275,76.609550
601.901118,-3775.050304,-8734.430116,229.828649
601.901431,-3552.988522,-8660.409521,842.705048
601.901744,-3404.947333,-8586.388927,1302.362347
601.902056,-3330.926739,-9030.512492,1072.533697
601.902369,-3701.029710,-9104.533087,1072.533697
601.902681,-4589.276840,-8586.388927,76.609550
601.902994,-4367.215058,-8734.430116,0.000000
601.903306,-3478.967927,-8956.491898,0.000000
601.903619,-4071.132681,-8660.409521,76.609550
601.903931,-4589.276840,-8290.306550,612.876398
601.904244,-4071.132681,-8586.388927,612.876398
601.904556,-3849.070898,-8660.409521,459.657299
601.904869,-4441.235652,-8364.327145,229.828649
601.905181,-4515.256246,-8438.347739,689.485948
601.905494,-4293.194464,-8216.285956,0.000000
601.905806,-3849.070898,-9178.553681,306.438199
601.906119,-4145.153275,-8956.491898,536.266849
601.906431,-4145.153275,-8512.368333,153.219100
601.906744,-3923.091493,-8808.450710,689.485948
601.907056,-3997.112087,-8586.388927,689.485948
601.907369,-3478.967927,-8586.388927,612.876398
601.907681,-3923.091493,-8734.430116,76.609550
601.907994,-4441.235652,-9030.512492,-153.219100
601.908306,-3997.112087,-8734.430116,0.000000
601.908619,-3627.009116,-8956.491898,229.828649
601.908932,-4219.173869,-8882.471304,306.438199
601.909244,-4811.338623,-8660.409521,1072.533697
601.909557,-4219.173869,-8734.430116,383.047749
601.909869,-4515.256246,-8142.265362,229.828649
601.910182,-4515.256246,-8364.327145,76.609550
601.910494,-4441.235652,-8660.409521,0.000000
601.910807,-4737.318029,-8364.327145,0.000000
601.911119,-5033.400406,-8660.409521,612.876398
601.911432,-4811.338623,-8438.347739,383.047749
601.911744,-4959.379811,-8068.244768,0.000000
601.912057,-5329.482782,-8290.306550,0.000000
601.912369,-4959.379811,-8216.285956,-689.485948
601.912682,-4515.256246,-8438.347739,76.609550
601.912994,-4737.318029,-8068.244768,153.219100
601.913307,-4145.153275,-8068.244768,536.266849
601.913619,-3923.091493,-8290.306550,536.266849
601.913932,-3923.091493,-8438.347739,766.095498
601.914244,-3849.070898,-9030.512492,612.876398
601.914557,-3404.947333,-9030.512492,229.828649
601.914869,-3478.967927,-8956.491898,766.095498
601.915182,-3404.947333,-9104.533087,842.705048
601.915495,-3256.906145,-8956.491898,229.828649
601.915807,-3330.926739,-8956.491898,689.485948
601.916120,-3627.009116,-9104.533087,459.657299
601.916432,-3404.947333,-8956.491898,536.266849
601.916745,-3404.947333,-9252.574275,229.828649
601.917057,-3108.864956,-9178.553681,459.657299
601.917370,-3034.844362,-9030.512492,612.876398
601.917682,-3330.926739,-8438.347739,1072.533697
601.917995,-3552.988522,-8512.368333,383.047749
601.918307,-3701.029710,-8734.430116,919.314598
601.918620,-3627.009116,-8956.491898,536.266849
601.918932,-3849.070898,-8734.430116,612.876398
601.919245,-3701.029710,-8882.471304,1302.362347
601.919557,-3775.050304,-8364.327145,1225.752797
601.919870,-3701.029710,-8586.388927,1225.752797
601.920182,-3330.926739,-8808.450710,1072.533697
601.920495,-3552.988522,-8956.491898,689.485948
601.920807,-3552.988522,-8956.491898,689.485948
601.921120,-3552.988522,-9252.574275,919.314598
601.921432,-3627.009116,-9030.512492,995.924147
601.921745,-3701.029710,-8734.430116,1455.581446
601.922058,-3849.070898,-8290.306550,1149.143247
601.922370,-3701.029710,-8512.368333,842.705048
601.922683,-3701.029710,-8290.306550,612.876398
601.922995,-3923.091493,-8808.450710,612.876398
601.923308,-4219.173869,-8734.430116,842.705048
601.923620,-4145.153275,-8586.388927,842.705048
601.923933,-4219.173869,-8438.347739,919.314598
601.924245,-4145.153275,-8512.368333,1378.971896
601.924558,-3849.070898,-8438.347739,689.485948
601.924870,-3923.091493,-8364.327145,536.266849
601.925183,-3923.091493,-8512.368333,383.047749
601.925495,-3552.988522,-8734.430116,1225.752797
601.925808,-3330.926739,-8734.430116,1302.362347
601.926120,-3404.947333,-9030.512492,1225.752797
601.926433,-3627.009116,-8216.285956,766.095498
601.926745,-3478.967927,-8512.368333,919.314598
601.927058,-3478.967927,-8586.388927,1762.019645
601.927370,-3404.947333,-8660.409521,536.266849
601.927683,-3701.029710,-8586.388927,306.438199
601.927995,-3997.112087,-8660.409521,766.095498
601.928308,-4219.173869,-8882.471304,1225.752797
601.928620,-4145.153275,-8660.409521,1072.533697
601.928933,-3627.009116,-8734.430116,1378.971896
601.929246,-3997.112087,-8882.471304,919.314598
601.929558,-3923.091493,-8512.368333,919.314598
601.929871,-3849.070898,-8290.306550,995.924147
601.930183,-4219.173869,-8290.306550,459.657299
601.930496,-4293.194464,-8290.306550,766.095498
601.930808,-4589.276840,-8364.327145,612.876398
601.931121,-4737.318029,-8290.306550,612.876398
601.931433,-4737.318029,-8216.285956,612.876398
601.931746,-4441.235652,-8438.347739,536.266849
601.932058,-4663.297435,-8660.409521,0.000000
601.932371,-4441.235652,-8364.327145,0.000000
601.932683,-4441.235652,-8512.368333,229.828649
601.932996,-3849.070898,-8586.388927,459.657299
601.933308,-3923.091493,-8660.409521,536.266849
601.933621,-3923.091493,-8808.450710,459.657299
601.933933,-3478.967927,-8956.491898,76.609550
601.934246,-3701.029710,-8808.450710,-229.828649
601.934558,-3701.029710,-9178.553681,306.438199
601.934871,-3478.967927,-8956.491898,459.657299
601.935183,-3552.988522,-9030.512492,612.876398
601.935496,-3478.967927,-9030.512492,306.438199
601.935809,-3404.947333,-8882.471304,153.219100
601.936121,-3701.029710,-8660.409521,306.438199
601.936434,-3627.009116,-8290.306550,229.828649
601.936746,-3478.967927,-8956.491898,0.000000
601.937059,-3701.029710,-8882.471304,-383.047749
601.937371,-4219.173869,-8882.471304,306.438199
601.937684,-4441.235652,-8512.368333,383.047749
601.937996,-4145.153275,-8882.471304,229.828649
601.938309,-3849.070898,-8956.491898,0.000000
601.938621,-4219.173869,-8586.388927,0.000000
601.938934,-4145.153275,-8586.388927,76.609550
601.939246,-3849.070898,-8290.306550,0.000000
601.939559,-3478.967927,-8734.430116,0.000000
601.939871,-3627.009116,-9030.512492,536.266849
601.940184,-3701.029710,-9030.512492,689.485948
601.940496,-3775.050304,-9030.512492,383.047749
601.940809,-3478.967927,-9326.594869,229.828649
601.941121,-3701.029710,-9252.574275,229.828649
601.941434,-3849.070898,-9252.574275,0.000000
601.941746,-3627.009116,-9104.533087,766.095498
601.942059,-2664.741391,-8512.368333,229.828649
601.942372,-3182.885551,-9178.553681,766.095498
601.942684,-3256.906145,-9252.574275,1149.143247
601.942997,-3034.844362,-9252.574275,995.924147
601.943309,-2516.700203,-9252.574275,1378.971896
601.943622,-2738.761985,-9474.636058,1378.971896
601.943934,-2368.659014,-8808.450710,1072.533697
601.944247,-2368.659014,-9548.656652,1532.190996
601.944559,-2368.659014,-9474.636058,1532.190996
601.944872,-2368.659014,-9400.615463,1838.629195
601.945184,-2368.659014,-9178.553681,1915.238745
601.945497,-2738.761985,-9252.574275,1915.238745
601.945809,-2812.782580,-9104.533087,2145.067394
601.946122,-3108.864956,-8808.450710,1838.629195
601.946434,-3404.947333,-8438.347739,2374.896044
601.946747,-3330.926739,-8142.265362,1915.238745
601.947059,-3627.009116,-8438.347739,1762.019645
601.947372,-3701.029710,-8290.306550,1532.190996
601.947684,-3849.070898,-8364.327145,1685.410096
601.947997,-3923.091493,-8512.368333,1838.629195
601.948309,-4071.132681,-8142.265362,1838.629195
601.948622,-4071.132681,-8216.285956,1915.238745
601.948934,-3552.988522,-8438.347739,1838.629195
601.949247,-3775.050304,-8808.450710,1838.629195
601.949560,-3849.070898,-8660.409521,1762.019645
601.949872,-3478.967927,-8882.471304,2145.067394
601.950185,-3330.926739,-8808.450710,2068.457845
601.950497,-3108.864956,-8734.430116,2374.896044
601.950810,-3034.844362,-8364.327145,1991.848295
601.951122,-2886.803174,-8586.388927,2451.505594
601.951435,-3034.844362,-8660.409521,2221.676944
601.951747,-2960.823768,-8808.450710,1762.019645
601.952060,-3182.885551,-8586.388927,1991.848295
601.952372,-3552.988522,-8512.368333,2145.067394
601.952685,-3552.988522,-8586.388927,1991.848295
601.952997,-3627.009116,-8438.347739,1608.800546
601.953310,-3627.009116,-8438.347739,1302.362347
601.953622,-3404.947333,-8142.265362,1455.581446
601.953935,-3478.967927,-8586.388927,1072.533697
601.954247,-3552.988522,-8438.347739,1225.752797
601.954560,-3256.906145,-8734.430116,1072.533697
601.954872,-3404.947333,-8956.491898,1455.581446
601.955185,-3034.844362,-9252.574275,1838.629195
601.955497,-3330.926739,-9030.512492,2145.067394
601.955810,-2886.803174,-8364.327145,919.314598
601.956123,-3182.885551,-8660.409521,1072.533697
601.956435,-3182.885551,-8808.450710,1072.533697
601.956748,-3108.864956,-8956.491898,536.266849
601.957060,-3256.906145,-9178.553681,689.485948
601.957373,-3552.988522,-9030.512492,995.924147
601.957685,-3627.009116,-9030.512492,1072.533697
601.957998,-2960.823768,-9326.594869,995.924147
601.958310,-2590.720797,-8956.491898,842.705048
601.958623,-3404.947333,-9030.512492,1072.533697
601.958935,-3404.947333,-9252.574275,306.438199
601.959248,-3256.906145,-9030.512492,689.485948
601.959560,-3182.885551,-9030.512492,766.095498
601.959873,-3108.864956,-9326.594869,689.485948
601.960185,-3108.864956,-8808.450710,229.828649
601.960498,-3256.906145,-9326.594869,383.047749
601.960810,-2812.782580,-9030.512492,306.438199
601.961123,-3330.926739,-9030.512492,306.438199
601.961435,-3404.947333,-9030.512492,229.828649
601.961748,-3182.885551,-9252.574275,383.047749
601.962060,-3330.926739,-8882.471304,536.266849
601.962373,-3256.906145,-9030.512492,536.266849
601.962686,-3108.864956,-8734.430116,229.828649
601.962998,-3034.844362,-8956.491898,612.876398
601.963311,-3552.988522,-8882.471304,459.657299
601.963623,-3108.864956,-9030.512492,1072.533697
601.963936,-3256.906145,-9030.512492,383.047749
601.964248,-3404.947333,-9104.533087,536.266849
601.964561,-3256.906145,-9104.533087,229.828649
601.964873,-3404.947333,-9326.594869,459.657299
601.965186,-3849.070898,-9104.533087,995.924147
601.965498,-2812.782580,-9474.636058,1455.581446
601.965811,-3627.009116,-9178.553681,1532.190996
601.966123,-3256.906145,-9474.636058,1072.533697
601.966436,-3478.967927,-9104.533087,1455.581446
601.966748,-3330.926739,-9104.533087,1378.971896
601.967061,-3034.844362,-9030.512492,1149.143247
601.967373,-3404.947333,-8882.471304,1149.143247
601.967686,-3404.947333,-8586.388927,1302.362347
601.967998,-3627.009116,-8808.450710,1149.143247
601.968311,-3552.988522,-8734.430116,1225.752797
601.968623,-3775.050304,-8512.368333,1149.143247
601.968936,-4145.153275,-8512.368333,1532.190996
601.969248,-3923.091493,-8882.471304,1455.581446
601.969561,-3775.050304,-8808.450710,1608.800546
601.969874,-3627.009116,-9400.615463,1225.752797
601.970186,-3034.844362,-8808.450710,1838.629195
601.970499,-3404.947333,-8734.430116,1762.019645
601.970811,-3330.926739,-8512.368333,1915.238745
601.971124,-2960.823768,-8956.491898,1762.019645
601.971435,-2886.803174,-8882.471304,1685.410096
601.971748,-2960.823768,-9030.512492,2145.067394
601.972060,-2960.823768,-9178.553681,1991.848295
601.972373,-3034.844362,-8882.471304,2068.457845
601.972685,-2886.803174,-8660.409521,1762.019645
601.972998,-2886.803174,-8808.450710,1991.848295
601.973311,-3034.844362,-8438.347739,1685.410096
601.973623,-3256.906145,-8882.471304,1762.019645
601.973936,-3552.988522,-8660.409521,1762.019645
601.974248,-3034.844362,-8734.430116,1378.971896
601.974561,-3256.906145,-9104.533087,1685.410096
601.974873,-3849.070898,-8734.430116,1608.800546
601.975186,-3330.926739,-7920.203579,1838.629195
601.975499,-2960.823768,-9030.512492,1302.362347
601.975811,-2368.659014,-8956.491898,2145.067394
601.976124,-3404.947333,-8512.368333,1991.848295
601.976436,-3034.844362,-8660.409521,1762.019645
601.976749,-2516.700203,-8808.450710,1762.019645
601.977061,-2516.700203,-8808.450710,1455.581446
601.977374,-2812.782580,-8882.471304,689.485948
601.977687,-3330.926739,-9178.553681,1838.629195
601.977999,-3627.009116,-8438.347739,1991.848295
601.978312,-3108.864956,-8734.430116,1608.800546
601.978624,-3034.844362,-8808.450710,1149.143247
601.978937,-3923.091493,-8734.430116,459.657299
601.979249,-3627.009116,-8660.409521,229.828649
601.979562,-3330.926739,-8660.409521,536.266849
601.979874,-2960.823768,-8808.450710,1608.800546
601.980187,-3627.009116,-9178.553681,995.924147
601.980500,-3923.091493,-8586.388927,1532.190996
601.980812,-3775.050304,-8586.388927,689.485948
601.981125,-4219.173869,-8956.491898,766.095498
601.981437,-3923.091493,-8882.471304,153.219100
601.981750,-3849.070898,-8438.347739,76.609550
601.982062,-4071.132681,-8512.368333,153.219100
601.982375,-3997.112087,-8586.388927,0.000000
601.982688,-3701.029710,-8586.388927,229.828649
601.983000,-3775.050304,-8956.491898,306.438199
601.983313,-3997.112087,-9252.574275,536.266849
601.983625,-3701.029710,-8882.471304,229.828649
601.983938,-3552.988522,-9474.636058,76.609550
601.984250,-3478.967927,-9178.553681,306.438199
601.984563,-2886.803174,-9252.574275,229.828649
601.984875,-3330.926739,-8956.491898,76.609550
601.985188,-3478.967927,-8956.491898,1225.752797
601.985501,-3256.906145,-9030.512492,1455.581446
601.985813,-3034.844362,-9326.594869,1608.800546
601.986126,-3478.967927,-9326.594869,1302.362347
601.986438,-3997.112087,-9030.512492,612.876398
601.986751,-3849.070898,-8734.430116,229.828649
601.987063,-3849.070898,-8882.471304,306.438199
601.987376,-3923.091493,-7994.224174,229.828649
601.987689,-3849.070898,-8216.285956,459.657299
601.988001,-4071.132681,-8290.306550,995.924147
601.988314,-4219.173869,-8808.450710,995.924147
601.988626,-3997.112087,-9030.512492,1225.752797
601.988939,-3627.009116,-8956.491898,1149.143247
601.989251,-3182.885551,-8956.491898,995.924147
601.989564,-3108.864956,-9252.574275,536.266849
601.989876,-2664.741391,-8734.430116,1072.533697
601.990189,-2886.803174,-8438.347739,1072.533697
601.990502,-2886.803174,-8808.450710,1991.848295
601.990814,-2738.761985,-9030.512492,2374.896044
601.991127,-2960.823768,-9252.574275,1838.629195
601.991439,-3923.091493,-9326.594869,1225.752797
601.991752,-3923.091493,-9030.512492,1149.143247
601.992064,-3256.906145,-9030.512492,689.485948
601.992377,-3923.091493,-8808.450710,153.219100
601.992690,-4071.132681,-8216.285956,1532.190996
601.993002,-3478.967927,-8364.327145,1302.362347
601.993315,-3182.885551,-8660.409521,1072.533697
601.993627,-3478.967927,-8586.388927,1149.143247
601.993940,-3182.885551,-8364.327145,1378.971896
601.994252,-2664.741391,-8586.388927,1685.410096
601.994565,-2812.782580,-8660.409521,2374.896044
601.994877,-2960.823768,-9104.533087,1991.848295
601.995190,-2664.741391,-9252.574275,2068.457845
601.995503,-3552.988522,-8882.471304,1608.800546
601.995815,-3701.029710,-9252.574275,1608.800546
601.996128,-3997.112087,-8660.409521,1072.533697
601.996440,-4071.132681,-8660.409521,842.705048
601.996753,-4367.215058,-8956.491898,689.485948
601.997065,-3997.112087,-8364.327145,1225.752797
601.997378,-3182.885551,-8734.430116,1762.019645
601.997691,-3034.844362,-8734.430116,2068.457845
601.998003,-3701.029710,-8586.388927,1762.019645
601.998316,-3034.844362,-8734.430116,1685.410096
601.998628,-2886.803174,-8956.491898,1378.971896
601.998941,-2442.679609,-8882.471304,1225.752797
601.999253,-2146.597232,-8956.491898,1378.971896
601.999566,-2220.617826,-8660.409521,1838.629195
601.999878,-2664.741391,-9030.512492,1838.629195
602.000191,-2516.700203,-9400.615463,1915.238745
602.000504,-2960.823768,-9622.677246,1302.362347
602.000816,-2886.803174,-9770.718434,1149.143247
602.001129,-2738.761985,-9474.636058,766.095498
602.001441,-2664.741391,-9030.512492,1072.533697
602.001754,-1850.514855,-9474.636058,1149.143247
602.002066,-2368.659014,-8512.368333,2068.457845
602.002379,-2146.597232,-8734.430116,1915.238745
602.002692,-2368.659014,-8956.491898,1915.238745
602.003004,-2590.720797,-9326.594869,1608.800546
602.003317,-2738.761985,-9030.512492,1225.752797
602.003629,-2886.803174,-8956.491898,995.924147
602.003942,-3627.009116,-9030.512492,1225.752797
602.004254,-3701.029710,-8882.471304,1225.752797
602.004567,-3775.050304,-8586.388927,1225.752797
602.004880,-3552.988522,-9030.512492,1072.533697
602.005192,-3701.029710,-9030.512492,919.314598
602.005505,-3849.070898,-8882.471304,1072.533697
602.005817,-3552.988522,-8734.430116,1072.533697
602.006130,-3034.844362,-8586.388927,1532.190996
602.006442,-3108.864956,-8068.244768,1455.581446
602.006755,-3182.885551,-8290.306550,1455.581446
602.007067,-3182.885551,-8438.347739,1149.143247
602.007380,-3256.906145,-8734.430116,1072.533697
602.007693,-3701.029710,-8586.388927,1532.190996
602.008005,-3330.926739,-9104.533087,1072.533697
602.008318,-3627.009116,-9104.533087,1608.800546
602.008630,-3701.029710,-9178.553681,1225.752797
602.008943,-3552.988522,-8882.471304,1149.143247
602.009255,-3330.926739,-9030.512492,1149.143247
602.009568,-3849.070898,-8882.471304,1072.533697
