#time,accel_x,accel_y,accel_z
6824.526973,-3404.947333,-8586.388927,-306.438199
6824.527297,-3552.988522,-8364.327145,-459.657299
6824.527621,-4737.318029,-8586.388927,229.828649
6824.527945,-4145.153275,-8660.409521,229.828649
6824.528269,-3108.864956,-8142.265362,0.000000
6824.528593,-3775.050304,-8586.388927,-229.828649
6824.528917,-4145.153275,-8586.388927,306.438199
6824.529241,-3256.906145,-8882.471304,229.828649
6824.529565,-3256.906145,-9548.656652,383.047749
6824.529889,-3330.926739,-10214.842000,919.314598
6824.530214,-2960.823768,-9104.533087,1302.362347
6824.530538,-3552.988522,-7994.224174,2451.505594
6824.530862,-4071.132681,-9474.636058,1915.238745
6824.531186,-4071.132681,-8068.244768,919.314598
6824.531510,-3034.844362,-8438.347739,-766.095498
6824.531834,-4293.194464,-8438.347739,-153.219100
6824.532158,-4219.173869,-8068.244768,612.876398
6824.532482,-3849.070898,-8364.327145,-306.438199
6824.532806,-4145.153275,-8438.347739,76.609550
6824.533130,-3997.112087,-9252.574275,459.657299
6824.533454,-3627.009116,-8216.285956,-383.047749
6824.533778,-2960.823768,-9696.697840,383.047749
6824.534102,-3330.926739,-9918.759623,766.095498
6824.534426,-2960.823768,-9474.636058,1149.143247
6824.534750,-2812.782580,-8586.388927,689.485948
6824.535074,-3923.091493,-9104.533087,1838.629195
6824.535399,-4145.153275,-8660.409521,919.314598
6824.535723,-2886.803174,-8512.368333,-1072.533697
6824.536047,-3997.112087,-8882.471304,459.657299
6824.536371,-4145.153275,-8216.285956,689.485948
6824.536695,-4145.153275,-8068.244768,153.219100
6824.537019,-4441.235652,-8364.327145,229.828649
6824.537343,-4589.276840,-9400.615463,842.705048
6824.537667,-3701.029710,-9178.553681,0.000000
6824.537991,-2960.823768,-8734.430116,153.219100
6824.538315,-3701.029710,-9992.780217,1455.581446
6824.538639,-2886.803174,-9252.574275,1378.971896
6824.538963,-2664.741391,-7920.203579,1072.533697
6824.539287,-3849.070898,-9104.533087,1608.800546
6824.539611,-4071.132681,-8734.430116,689.485948
6824.539935,-3775.050304,-8438.347739,-306.438199
6824.540259,-4589.276840,-8290.306550,-995.924147
6824.540584,-4367.215058,-8512.368333,153.219100
6824.540908,-3552.988522,-7994.224174,-229.828649
6824.541232,-4441.235652,-8882.471304,383.047749
6824.541556,-4293.194464,-9696.697840,919.314598
6824.541880,-2960.823768,-9400.615463,153.219100
6824.542204,-2664.741391,-8956.491898,0.000000
6824.542528,-3552.988522,-9474.636058,1762.019645
6824.542852,-3849.070898,-9178.553681,1991.848295
6824.543176,-2664.741391,-7920.203579,306.438199
6824.543500,-3627.009116,-9030.512492,612.876398
6824.543824,-4293.194464,-8734.430116,459.657299
6824.544148,-3923.091493,-8364.327145,0.000000
6824.544472,-4663.297435,-8512.368333,-536.266849
6824.544796,-4441.235652,-9178.553681,229.828649
6824.545120,-3330.926739,-8586.388927,0.000000
6824.545444,-3552.988522,-8438.347739,536.266849
6824.545768,-4441.235652,-9474.636058,1072.533697
6824.546093,-3330.926739,-9178.553681,0.000000
6824.546417,-2368.659014,-8808.450710,-229.828649
6824.546741,-3478.967927,-9844.739029,612.876398
6824.547065,-3923.091493,-9400.615463,1685.410096
6824.547389,-3330.926739,-8586.388927,1378.971896
6824.547713,-2960.823768,-9474.636058,689.485948
6824.548037,-3701.029710,-8808.450710,1225.752797
6824.548361,-4367.215058,-8364.327145,919.314598
6824.548685,-4663.297435,-8216.285956,383.047749
6824.549009,-4737.318029,-8882.471304,459.657299
6824.549333,-3404.947333,-8512.368333,-536.266849
6824.549657,-3627.009116,-7846.182985,-766.095498
6824.549981,-4663.297435,-8808.450710,459.657299
6824.550305,-3849.070898,-8956.491898,842.705048
6824.550629,-1998.556043,-8882.471304,-459.657299
6824.550953,-2738.761985,-9474.636058,76.609550
6824.551278,-3627.009116,-9474.636058,1378.971896
6824.551602,-3552.988522,-8882.471304,1302.362347
6824.551926,-3182.885551,-8808.450710,1149.143247
6824.552250,-3256.906145,-9178.553681,306.438199
6824.552574,-3182.885551,-8586.388927,766.095498
6824.552898,-3627.009116,-8660.409521,-383.047749
6824.553222,-4145.153275,-9474.636058,383.047749
6824.553546,-2960.823768,-9104.533087,0.000000
6824.553870,-2886.803174,-8364.327145,-153.219100
6824.554194,-3923.091493,-8512.368333,1225.752797
6824.554518,-4441.235652,-8956.491898,1991.848295
6824.554842,-3034.844362,-9104.533087,766.095498
6824.555166,-2960.823768,-9178.553681,459.657299
6824.555490,-3923.091493,-9104.533087,1838.629195
6824.555814,-3552.988522,-8216.285956,1302.362347
6824.556138,-4441.235652,-8290.306550,919.314598
6824.556463,-4959.379811,-9326.594869,0.000000
6824.556787,-4293.194464,-8364.327145,-1915.238745
6824.557111,-3849.070898,-7920.203579,-1225.752797
6824.557435,-3923.091493,-8068.244768,76.609550
6824.557759,-2442.679609,-9252.574275,0.000000
6824.558083,-1776.494261,-8290.306550,-153.219100
6824.558407,-2442.679609,-9548.656652,919.314598
6824.558731,-3330.926739,-9548.656652,1685.410096
6824.559055,-2590.720797,-10214.842000,2068.457845
6824.559379,-1850.514855,-10140.821405,842.705048
6824.559703,-2072.576638,-9844.739029,1455.581446
6824.560027,-2960.823768,-9548.656652,1838.629195
6824.560351,-4737.318029,-8142.265362,1685.410096
6824.560675,-5033.400406,-9252.574275,1225.752797
6824.560999,-3552.988522,-8438.347739,-1225.752797
6824.561323,-3478.967927,-6957.935855,-2221.676944
6824.561647,-5181.441594,-7772.162391,-612.876398
6824.561971,-3997.112087,-8660.409521,-689.485948
6824.562295,-2146.597232,-8586.388927,-689.485948
6824.562619,-2590.720797,-8438.347739,612.876398
6824.562943,-3775.050304,-9400.615463,2451.505594
6824.563267,-2368.659014,-9326.594869,1302.362347
6824.563591,-814.226536,-10140.821405,-306.438199
6824.563915,-1332.370696,-10955.047942,-612.876398
6824.564239,-2368.659014,-9918.759623,1072.533697
6824.564563,-2516.700203,-8808.450710,1991.848295
6824.564888,-2368.659014,-9622.677246,2604.724693
6824.565212,-1924.535449,-9400.615463,229.828649
6824.565536,-1998.556043,-9178.553681,-919.314598
6824.565860,-3849.070898,-8882.471304,229.828649
6824.566184,-4071.132681,-8438.347739,1915.238745
6824.566508,-3182.885551,-7402.059420,-536.266849
6824.566832,-3552.988522,-8660.409521,-689.485948
6824.567156,-5033.400406,-8956.491898,383.047749
6824.567480,-3923.091493,-8586.388927,459.657299
6824.567804,-2664.741391,-8660.409521,-383.047749
6824.568128,-3182.885551,-9770.718434,0.000000
6824.568452,-3108.864956,-9992.780217,995.924147
6824.568776,-2442.679609,-8068.244768,1608.800546
6824.569100,-2516.700203,-8808.450710,1685.410096
6824.569424,-2294.638420,-8734.430116,689.485948
6824.569748,-2664.741391,-9548.656652,0.000000
6824.570072,-3404.947333,-9326.594869,-306.438199
6824.570396,-2590.720797,-9326.594869,842.705048
6824.570720,-2664.741391,-9030.512492,383.047749
6824.571044,-3775.050304,-8438.347739,842.705048
6824.571368,-4737.318029,-9474.636058,919.314598
6824.571692,-4663.297435,-8956.491898,76.609550
6824.572016,-4145.153275,-8734.430116,0.000000
6824.572340,-5181.441594,-9622.677246,689.485948
6824.572664,-4811.338623,-8290.306550,1149.143247
6824.572988,-3627.009116,-7550.100608,0.000000
6824.573312,-4219.173869,-7846.182985,459.657299
6824.573636,-5107.421000,-8290.306550,536.266849
6824.573960,-4293.194464,-8290.306550,-536.266849
6824.574284,-3997.112087,-7920.203579,0.000000
6824.574608,-3849.070898,-8808.450710,306.438199
6824.574932,-3330.926739,-7994.224174,153.219100
6824.575256,-3552.988522,-9104.533087,0.000000
6824.575580,-4515.256246,-9622.677246,919.314598
6824.575904,-2664.741391,-10807.006753,306.438199
6824.576228,-2146.597232,-9104.533087,0.000000
6824.576552,-3182.885551,-9770.718434,1225.752797
6824.576876,-3404.947333,-9918.759623,2451.505594
6824.577200,-2812.782580,-8660.409521,1149.143247
6824.577524,-3404.947333,-8882.471304,995.924147
6824.577849,-4737.318029,-8364.327145,1455.581446
6824.578173,-3849.070898,-7846.182985,0.000000
6824.578497,-3923.091493,-7328.038826,-1072.533697
6824.578821,-4219.173869,-8290.306550,-229.828649
6824.579145,-4071.132681,-7994.224174,-459.657299
6824.579469,-3849.070898,-7772.162391,-536.266849
6824.579793,-4367.215058,-9104.533087,612.876398
6824.580117,-2886.803174,-9178.553681,76.609550
6824.580441,-1554.432478,-9400.615463,0.000000
6824.580765,-1702.473667,-9474.636058,1072.533697
6824.581089,-1998.556043,-10362.883188,2068.457845
6824.581413,-1258.350101,-9844.739029,1072.533697
6824.581737,-814.226536,-9844.739029,1225.752797
6824.582061,-1998.556043,-10658.965565,1455.581446
6824.582385,-1924.535449,-9252.574275,995.924147
6824.582709,-2516.700203,-8808.450710,612.876398
6824.583033,-3330.926739,-9252.574275,536.266849
6824.583357,-2960.823768,-8808.450710,-536.266849
6824.583681,-3701.029710,-7994.224174,-689.485948
6824.584005,-4737.318029,-8290.306550,689.485948
6824.584329,-4515.256246,-8956.491898,383.047749
6824.584653,-3108.864956,-7920.203579,-766.095498
6824.584977,-2664.741391,-8512.368333,-1302.362347
6824.585301,-3701.029710,-9474.636058,1455.581446
6824.585625,-2960.823768,-9104.533087,1685.410096
6824.585949,-2590.720797,-9178.553681,1225.752797
6824.586273,-3256.906145,-9548.656652,1378.971896
6824.586597,-2812.782580,-9178.553681,766.095498
6824.586921,-3404.947333,-8734.430116,536.266849
6824.587245,-4737.318029,-9178.553681,1762.019645
6824.587569,-4589.276840,-8956.491898,306.438199
6824.587893,-4515.256246,-7920.203579,-306.438199
6824.588217,-6439.791695,-7846.182985,766.095498
6824.588541,-6513.812290,-8512.368333,306.438199
6824.588865,-5329.482782,-8734.430116,-689.485948
6824.589189,-5403.503377,-8216.285956,-1072.533697
6824.589513,-5921.647536,-8956.491898,459.657299
6824.589837,-5477.523971,-7698.141797,689.485948
6824.590161,-5107.421000,-7846.182985,459.657299
6824.590485,-5921.647536,-8586.388927,689.485948
6824.590810,-5477.523971,-7698.141797,-459.657299
6824.591134,-5107.421000,-7476.080014,-612.876398
6824.591458,-5551.544565,-8364.327145,229.828649
6824.591782,-4811.338623,-8216.285956,536.266849
6824.592106,-3997.112087,-8364.327145,-459.657299
6824.592430,-4811.338623,-8290.306550,689.485948
6824.592754,-5107.421000,-9030.512492,1302.362347
6824.593078,-3849.070898,-9474.636058,0.000000
6824.593402,-3330.926739,-9400.615463,-612.876398
6824.593726,-3330.926739,-10140.821405,536.266849
6824.594050,-3552.988522,-8438.347739,1225.752797
6824.594374,-3627.009116,-7994.224174,1838.629195
6824.594698,-4293.194464,-8512.368333,2298.286494
6824.595022,-3256.906145,-9178.553681,-229.828649
6824.595346,-3849.070898,-7550.100608,0.000000
6824.595670,-4663.297435,-7994.224174,229.828649
6824.595994,-4737.318029,-8438.347739,1225.752797
6824.596318,-4219.173869,-7698.141797,0.000000
6824.596642,-3923.091493,-8216.285956,-229.828649
6824.596966,-4515.256246,-9252.574275,766.095498
6824.597290,-3330.926739,-9474.636058,153.219100
6824.597614,-2368.659014,-8956.491898,-306.438199
6824.597938,-1924.535449,-10066.800811,1378.971896
6824.598262,-1998.556043,-9474.636058,1838.629195
6824.598586,-1628.453072,-8364.327145,1838.629195
6824.598910,-2664.741391,-9326.594869,1762.019645
6824.599234,-2886.803174,-9400.615463,1302.362347
6824.599558,-1702.473667,-9474.636058,-842.705048
6824.599882,-3478.967927,-8882.471304,-842.705048
6824.600206,-3923.091493,-8956.491898,1378.971896
6824.600530,-3849.070898,-8956.491898,842.705048
6824.600854,-3627.009116,-8808.450710,153.219100
6824.601178,-4663.297435,-9252.574275,995.924147
6824.601502,-4293.194464,-9696.697840,306.438199
6824.601826,-3552.988522,-8068.244768,-689.485948
6824.602150,-3552.988522,-9326.594869,229.828649
6824.602474,-3701.029710,-9178.553681,842.705048
6824.602798,-3034.844362,-7328.038826,1072.533697
6824.603122,-3997.112087,-8364.327145,1991.848295
6824.603446,-4811.338623,-8364.327145,1225.752797
6824.603771,-3108.864956,-8956.491898,-995.924147
6824.604095,-3701.029710,-7402.059420,-1072.533697
6824.604419,-4885.359217,-9030.512492,919.314598
6824.604743,-3701.029710,-9030.512492,229.828649
6824.605067,-4293.194464,-8216.285956,0.000000
6824.605391,-5329.482782,-9548.656652,842.705048
6824.605715,-4959.379811,-9400.615463,459.657299
6824.606039,-4293.194464,-8512.368333,0.000000
6824.606363,-4885.359217,-9326.594869,0.000000
6824.606687,-4885.359217,-9178.553681,383.047749
6824.607011,-4515.256246,-7624.121203,0.000000
6824.607335,-5033.400406,-8068.244768,842.705048
6824.607659,-6217.729913,-8216.285956,1072.533697
6824.607983,-6069.688724,-7772.162391,-229.828649
6824.608307,-5477.523971,-7698.141797,-1608.800546
6824.608631,-5033.400406,-7772.162391,0.000000
6824.608955,-4219.173869,-7624.121203,0.000000
6824.609279,-4737.318029,-8068.244768,-306.438199
6824.609603,-5699.585753,-8882.471304,1072.533697
6824.609927,-4367.215058,-9696.697840,689.485948
6824.610251,-2294.638420,-8956.491898,-459.657299
6824.610575,-2738.761985,-9918.759623,-306.438199
6824.610899,-4219.173869,-9844.739029,1762.019645
6824.611223,-3923.091493,-9696.697840,2451.505594
6824.611547,-3034.844362,-8142.265362,1378.971896
6824.611871,-4515.256246,-8734.430116,1455.581446
6824.612195,-4589.276840,-8512.368333,459.657299
6824.612519,-3775.050304,-7920.203579,-1149.143247
6824.612843,-3849.070898,-8438.347739,-1225.752797
6824.613167,-4441.235652,-7698.141797,0.000000
6824.613491,-4293.194464,-7105.977043,1225.752797
6824.613815,-4959.379811,-7920.203579,1225.752797
6824.614139,-3849.070898,-8882.471304,383.047749
6824.614463,-2368.659014,-8882.471304,-766.095498
6824.614787,-2368.659014,-9622.677246,153.219100
6824.615111,-3108.864956,-9918.759623,2298.286494
6824.615435,-1628.453072,-8956.491898,2987.772442
6824.615759,-2368.659014,-9474.636058,2604.724693
6824.616083,-4219.173869,-9548.656652,1455.581446
6824.616407,-2960.823768,-9696.697840,-842.705048
6824.616732,-3108.864956,-9474.636058,-1762.019645
6824.617056,-3478.967927,-8808.450710,-612.876398
6824.617380,-3182.885551,-8438.347739,612.876398
6824.617704,-3627.009116,-7476.080014,1149.143247
6824.618028,-3775.050304,-8808.450710,1762.019645
6824.618352,-3701.029710,-8808.450710,995.924147
6824.618676,-4145.153275,-8882.471304,0.000000
6824.619000,-4515.256246,-8586.388927,383.047749
6824.619324,-4959.379811,-9178.553681,1532.190996
6824.619648,-4367.215058,-8660.409521,1072.533697
6824.619972,-4293.194464,-8512.368333,229.828649
6824.620296,-5255.462188,-8364.327145,689.485948
6824.620620,-4071.132681,-7772.162391,459.657299
6824.620944,-4145.153275,-8142.265362,-1455.581446
6824.621268,-4219.173869,-8882.471304,-995.924147
6824.621592,-3478.967927,-9474.636058,0.000000
6824.621916,-2738.761985,-8512.368333,612.876398
6824.622240,-3108.864956,-8364.327145,2604.724693
6824.622564,-4737.318029,-9474.636058,2681.334243
6824.622888,-3404.947333,-9696.697840,153.219100
6824.623212,-3478.967927,-9474.636058,-459.657299
6824.623536,-5107.421000,-9252.574275,919.314598
6824.623860,-5181.441594,-8660.409521,1532.190996
6824.624184,-4293.194464,-7105.977043,0.000000
6824.624508,-4737.318029,-8142.265362,-153.219100
6824.624832,-5329.482782,-8290.306550,-1072.533697
6824.625156,-4737.318029,-7772.162391,-2528.115143
6824.625480,-4811.338623,-8216.285956,-919.314598
6824.625804,-4071.132681,-9252.574275,-306.438199
6824.626128,-2664.741391,-8882.471304,-612.876398
6824.626452,-3330.926739,-9030.512492,536.266849
6824.626776,-3627.009116,-11103.089130,2374.896044
6824.627100,-2072.576638,-9918.759623,2451.505594
6824.627424,-1110.308913,-9400.615463,1149.143247
6824.627748,-2368.659014,-9622.677246,1991.848295
6824.628072,-3552.988522,-9474.636058,2528.115143
6824.628396,-4515.256246,-8512.368333,383.047749
6824.628720,-5699.585753,-9104.533087,0.000000
6824.629044,-5477.523971,-8068.244768,-1149.143247
6824.629368,-4441.235652,-6587.832884,-1762.019645
6824.629693,-4885.359217,-7105.977043,-612.876398
6824.630017,-4515.256246,-8142.265362,153.219100
6824.630341,-4293.194464,-8586.388927,-995.924147
6824.630665,-4367.215058,-8290.306550,76.609550
6824.630989,-4145.153275,-8882.471304,1455.581446
6824.631313,-2886.803174,-9918.759623,383.047749
6824.631637,-2442.679609,-10066.800811,459.657299
6824.631961,-2738.761985,-11251.130318,1455.581446
6824.632285,-2368.659014,-9548.656652,2911.162892
6824.632609,-2368.659014,-7624.121203,3907.087040
6824.632933,-4663.297435,-8438.347739,3140.991542
6824.633257,-4293.194464,-8660.409521,383.047749
6824.633581,-3256.906145,-8216.285956,-2221.676944
6824.633905,-4737.318029,-7550.100608,-2221.676944
6824.634229,-6365.771101,-7698.141797,1302.362347
6824.634553,-5847.626942,-6957.935855,1532.190996
6824.634877,-5033.400406,-7179.997637,0.000000
6824.635201,-5477.523971,-8882.471304,-842.705048
6824.635525,-5255.462188,-9252.574275,-1072.533697
6824.635849,-4885.359217,-8586.388927,0.000000
6824.636173,-4145.153275,-9178.553681,1149.143247
6824.636497,-3552.988522,-8512.368333,2451.505594
6824.636821,-3849.070898,-8068.244768,2298.286494
6824.637145,-5403.503377,-8512.368333,2834.553343
6824.637469,-5107.421000,-9030.512492,1455.581446
6824.637793,-4145.153275,-8660.409521,-995.924147
6824.638117,-4589.276840,-7698.141797,-1225.752797
6824.638441,-5847.626942,-8512.368333,229.828649
6824.638765,-5033.400406,-7476.080014,842.705048
6824.639089,-4219.173869,-7402.059420,76.609550
6824.639413,-4589.276840,-8660.409521,-229.828649
6824.639737,-4589.276840,-8438.347739,0.000000
6824.640061,-4367.215058,-8586.388927,-383.047749
6824.640385,-4145.153275,-9178.553681,0.000000
6824.640709,-4219.173869,-9548.656652,1072.533697
6824.641033,-4293.194464,-8586.388927,1225.752797
6824.641357,-4145.153275,-8216.285956,995.924147
6824.641681,-4885.359217,-8956.491898,1455.581446
6824.642005,-3849.070898,-8586.388927,0.000000
6824.642329,-3404.947333,-9400.615463,-995.924147
6824.642654,-4293.194464,-8956.491898,383.047749
6824.642978,-3256.906145,-8956.491898,995.924147
6824.643302,-2960.823768,-8216.285956,153.219100
6824.643626,-3478.967927,-9104.533087,689.485948
6824.643950,-3775.050304,-9030.512492,0.000000
6824.644274,-2294.638420,-8364.327145,-459.657299
6824.644598,-2812.782580,-9622.677246,842.705048
6824.644922,-2590.720797,-9548.656652,1991.848295
6824.645246,-1924.535449,-8734.430116,1915.238745
6824.645570,-2886.803174,-8438.347739,2298.286494
6824.645894,-4293.194464,-9252.574275,2221.676944
6824.646218,-4367.215058,-8586.388927,306.438199
6824.646542,-3775.050304,-8586.388927,-1838.629195
6824.646866,-4737.318029,-8364.327145,-995.924147
6824.647190,-5033.400406,-8660.409521,0.000000
6824.647514,-5107.421000,-7772.162391,-536.266849
6824.647838,-4737.318029,-9252.574275,-536.266849
6824.648162,-3478.967927,-9474.636058,-689.485948
6824.648486,-2220.617826,-8734.430116,-229.828649
6824.648810,-2368.659014,-8882.471304,383.047749
6824.649134,-2516.700203,-9326.594869,2604.724693
6824.649458,-1998.556043,-9622.677246,2374.896044
6824.649782,-2442.679609,-8882.471304,1608.800546
6824.650106,-3701.029710,-9622.677246,1991.848295
6824.650430,-3923.091493,-9030.512492,1149.143247
6824.650754,-3701.029710,-8512.368333,-306.438199
6824.651078,-4515.256246,-8660.409521,0.000000
6824.651402,-5403.503377,-7772.162391,0.000000
6824.651726,-5255.462188,-7254.018232,76.609550
6824.652050,-6143.709319,-7402.059420,0.000000
6824.652374,-6069.688724,-8734.430116,-536.266849
6824.652698,-4737.318029,-8586.388927,-1378.971896
6824.653022,-4589.276840,-8216.285956,-1149.143247
6824.653346,-5255.462188,-8512.368333,229.828649
6824.653670,-4219.173869,-9178.553681,1685.410096
6824.653994,-3775.050304,-8068.244768,766.095498
6824.654318,-4219.173869,-9474.636058,1455.581446
6824.654642,-4145.153275,-8956.491898,995.924147
6824.654966,-3552.988522,-7846.182985,229.828649
6824.655290,-3478.967927,-8956.491898,536.266849
6824.655614,-3478.967927,-8586.388927,1455.581446
6824.655939,-3849.070898,-7846.182985,1072.533697
6824.656263,-5181.441594,-7920.203579,1455.581446
6824.656587,-5847.626942,-8734.430116,1378.971896
6824.656911,-5033.400406,-8512.368333,-766.095498
6824.657235,-4885.359217,-8142.265362,-1378.971896
6824.657559,-5995.668130,-8586.388927,459.657299
6824.657883,-5033.400406,-8660.409521,995.924147
6824.658207,-4367.215058,-7624.121203,766.095498
6824.658531,-4663.297435,-8290.306550,919.314598
6824.658855,-4737.318029,-8364.327145,536.266849
6824.659179,-3849.070898,-7920.203579,-459.657299
6824.659503,-4219.173869,-8808.450710,76.609550
6824.659827,-3775.050304,-9178.553681,1378.971896
6824.660151,-2960.823768,-8512.368333,229.828649
6824.660475,-3923.091493,-8142.265362,1225.752797
6824.660799,-4737.318029,-9770.718434,1838.629195
6824.661123,-3997.112087,-10214.842000,229.828649
6824.661447,-2960.823768,-9474.636058,-1532.190996
6824.661772,-2738.761985,-9918.759623,0.000000
6824.662096,-3034.844362,-8438.347739,1378.971896
6824.662420,-2664.741391,-7105.977043,1532.190996
6824.662744,-3034.844362,-8660.409521,919.314598
6824.663068,-3701.029710,-8808.450710,0.000000
6824.663392,-3182.885551,-8438.347739,-383.047749
6824.663716,-3404.947333,-8734.430116,-459.657299
6824.664041,-3997.112087,-8586.388927,612.876398
6824.664365,-3627.009116,-8290.306550,536.266849
6824.664689,-3182.885551,-9400.615463,459.657299
6824.665013,-3775.050304,-9992.780217,919.314598
6824.665337,-3701.029710,-10214.842000,766.095498
6824.665661,-2738.761985,-9252.574275,-383.047749
6824.665985,-2368.659014,-9252.574275,229.828649
6824.666310,-2960.823768,-9548.656652,1149.143247
6824.666634,-2812.782580,-8882.471304,1608.800546
6824.666958,-2590.720797,-8734.430116,1455.581446
6824.667282,-3701.029710,-8068.244768,1225.752797
6824.667606,-3256.906145,-8290.306550,-842.705048
6824.667930,-3849.070898,-7772.162391,-766.095498
6824.668254,-4515.256246,-8882.471304,0.000000
6824.668579,-4589.276840,-8808.450710,153.219100
6824.668903,-4737.318029,-7772.162391,306.438199
6824.669227,-4959.379811,-8956.491898,612.876398
6824.669551,-5107.421000,-9474.636058,689.485948
6824.669875,-4737.318029,-9178.553681,-459.657299
6824.670199,-4515.256246,-9400.615463,-766.095498
6824.670523,-4293.194464,-8660.409521,842.705048
6824.670848,-4219.173869,-8216.285956,1072.533697
6824.671172,-4515.256246,-8216.285956,1072.533697
6824.671496,-4737.318029,-9104.533087,76.609550
6824.671820,-4145.153275,-8142.265362,-842.705048
6824.672144,-4441.235652,-7105.977043,-766.095498
6824.672468,-4737.318029,-7846.182985,0.000000
6824.672792,-4145.153275,-8586.388927,76.609550
6824.673117,-4145.153275,-8660.409521,-153.219100
6824.673441,-4219.173869,-8734.430116,306.438199
6824.673765,-3849.070898,-9548.656652,689.485948
6824.674089,-3330.926739,-8660.409521,766.095498
6824.674413,-3256.906145,-9622.677246,1455.581446
6824.674737,-2516.700203,-10214.842000,1685.410096
6824.675062,-2516.700203,-8956.491898,1149.143247
6824.675386,-3478.967927,-8660.409521,1532.190996
6824.675710,-4293.194464,-8882.471304,1225.752797
6824.676034,-3404.947333,-8438.347739,-612.876398
6824.676358,-2368.659014,-8068.244768,-2145.067394
6824.676682,-3034.844362,-8364.327145,-612.876398
6824.677006,-2516.700203,-8734.430116,306.438199
6824.677331,-1998.556043,-8068.244768,766.095498
6824.677655,-1554.432478,-9400.615463,1149.143247
6824.677979,-1924.535449,-9474.636058,1302.362347
6824.678303,-1554.432478,-10288.862594,995.924147
6824.678627,-1850.514855,-10881.027347,1762.019645
6824.678951,-2220.617826,-10584.944971,2451.505594
6824.679275,-1850.514855,-9622.677246,2451.505594
6824.679600,-2886.803174,-8808.450710,1455.581446
6824.679924,-4219.173869,-10066.800811,1072.533697
6824.680248,-3923.091493,-9326.594869,-459.657299
6824.680572,-3034.844362,-8290.306550,-1915.238745
6824.680896,-3478.967927,-7846.182985,-842.705048
6824.681220,-3330.926739,-7179.997637,689.485948
6824.681544,-2812.782580,-7476.080014,383.047749
6824.681869,-3849.070898,-8142.265362,229.828649
6824.682193,-3330.926739,-9400.615463,459.657299
6824.682517,-2590.720797,-9252.574275,459.657299
6824.682841,-2516.700203,-9474.636058,689.485948
6824.683165,-2812.782580,-10066.800811,1302.362347
6824.683489,-3404.947333,-9548.656652,1915.238745
6824.683813,-3627.009116,-9326.594869,1532.190996
6824.684138,-3775.050304,-9918.759623,919.314598
6824.684462,-4293.194464,-9474.636058,383.047749
6824.684786,-3849.070898,-8290.306550,-919.314598
6824.685110,-3552.988522,-8734.430116,-842.705048
6824.685434,-3478.967927,-7920.203579,-153.219100
6824.685758,-3849.070898,-7772.162391,1455.581446
6824.686082,-4737.318029,-8586.388927,689.485948
6824.686407,-4441.235652,-8660.409521,766.095498
6824.686731,-3627.009116,-8216.285956,-766.095498
6824.687055,-3701.029710,-8438.347739,-383.047749
6824.687379,-4737.318029,-8956.491898,536.266849
6824.687703,-4885.359217,-8660.409521,1455.581446
6824.688027,-3997.112087,-8660.409521,766.095498
6824.688351,-4219.173869,-9474.636058,-689.485948
6824.688676,-4737.318029,-8586.388927,76.609550
6824.689000,-4589.276840,-8586.388927,-612.876398
6824.689324,-3997.112087,-8956.491898,-689.485948
6824.689648,-3182.885551,-9030.512492,-229.828649
6824.689972,-2664.741391,-9178.553681,153.219100
6824.690296,-3404.947333,-9178.553681,995.924147
6824.690620,-3330.926739,-9252.574275,1838.629195
6824.690945,-1628.453072,-9474.636058,76.609550
6824.691269,-1258.350101,-9104.533087,-153.219100
6824.691593,-2220.617826,-10140.821405,1149.143247
6824.691917,-2812.782580,-9474.636058,2681.334243
6824.692241,-2442.679609,-7698.141797,2374.896044
6824.692565,-3034.844362,-8808.450710,1225.752797
6824.692889,-4293.194464,-8290.306550,383.047749
6824.693214,-3701.029710,-9030.512492,-612.876398
6824.693538,-4219.173869,-9400.615463,-1072.533697
6824.693862,-4219.173869,-8734.430116,0.000000
6824.694186,-3108.864956,-8512.368333,-459.657299
6824.694510,-3330.926739,-8660.409521,153.219100
6824.694834,-3552.988522,-9844.739029,766.095498
6824.695158,-2146.597232,-10066.800811,0.000000
6824.695483,-1036.288319,-9548.656652,0.000000
6824.695807,-1702.473667,-9918.759623,1762.019645
6824.696131,-1924.535449,-9400.615463,2987.772442
6824.696455,-1480.411884,-9030.512492,2834.553343
6824.696779,-2294.638420,-9474.636058,1838.629195
6824.697103,-2886.803174,-9622.677246,995.924147
6824.697427,-3552.988522,-8734.430116,536.266849
6824.697752,-3478.967927,-7846.182985,306.438199
6824.698076,-3552.988522,-8438.347739,536.266849
6824.698400,-3849.070898,-7846.182985,-766.095498
6824.698724,-4367.215058,-7994.224174,-306.438199
6824.699048,-5107.421000,-8734.430116,0.000000
6824.699372,-4145.153275,-8586.388927,-306.438199
6824.699697,-3256.906145,-8364.327145,-995.924147
6824.700021,-3330.926739,-9252.574275,536.266849
6824.700345,-3256.906145,-8882.471304,919.314598
6824.700669,-3478.967927,-8882.471304,2298.286494
6824.700993,-3404.947333,-8882.471304,1838.629195
6824.701317,-3627.009116,-9844.739029,1225.752797
6824.701641,-3627.009116,-8882.471304,0.000000
6824.701966,-4367.215058,-8438.347739,0.000000
6824.702290,-5181.441594,-8882.471304,1149.143247
6824.702614,-4071.132681,-8660.409521,-229.828649
6824.702938,-4441.235652,-8216.285956,-1072.533697
6824.703262,-5329.482782,-8364.327145,-229.828649
6824.703586,-4737.318029,-9252.574275,-153.219100
6824.703910,-3404.947333,-8438.347739,-1378.971896
6824.704235,-2960.823768,-9400.615463,0.000000
6824.704559,-3552.988522,-9030.512492,766.095498
6824.704883,-2960.823768,-8438.347739,1532.190996
6824.705207,-2960.823768,-9030.512492,1608.800546
6824.705531,-3849.070898,-9770.718434,689.485948
6824.705855,-2960.823768,-9178.553681,0.000000
6824.706179,-2960.823768,-8512.368333,-536.266849
6824.706504,-3330.926739,-8956.491898,612.876398
6824.706828,-3701.029710,-8882.471304,995.924147
6824.707152,-3478.967927,-8808.450710,153.219100
6824.707476,-3923.091493,-8956.491898,766.095498
6824.707800,-3034.844362,-9474.636058,995.924147
6824.708124,-2146.597232,-9548.656652,-689.485948
6824.708448,-2960.823768,-9400.615463,0.000000
6824.708773,-3849.070898,-10362.883188,1762.019645
6824.709097,-2072.576638,-8512.368333,1685.410096
6824.709421,-1480.411884,-8142.265362,1608.800546
6824.709745,-3182.885551,-9474.636058,842.705048
6824.710069,-3478.967927,-8734.430116,383.047749
6824.710393,-3552.988522,-8364.327145,-459.657299
6824.710717,-3478.967927,-8290.306550,536.266849
6824.711042,-3256.906145,-8438.347739,842.705048
6824.711366,-3034.844362,-7772.162391,0.000000
6824.711690,-3404.947333,-8808.450710,76.609550
6824.712014,-3108.864956,-9770.718434,-229.828649
6824.712338,-3478.967927,-9474.636058,-383.047749
6824.712662,-3701.029710,-9992.780217,76.609550
6824.712986,-3404.947333,-10214.842000,1915.238745
6824.713311,-1628.453072,-8956.491898,1302.362347
6824.713635,-1110.308913,-8216.285956,1532.190996
6824.713959,-2886.803174,-9178.553681,1378.971896
6824.714283,-3923.091493,-8586.388927,1685.410096
6824.714607,-2738.761985,-7920.203579,612.876398
6824.714931,-3108.864956,-8216.285956,0.000000
6824.715255,-3997.112087,-8438.347739,-612.876398
6824.715580,-4071.132681,-8438.347739,-842.705048
6824.715904,-3849.070898,-8882.471304,383.047749
6824.716228,-3997.112087,-9548.656652,229.828649
6824.716552,-3478.967927,-8290.306550,1072.533697
6824.716876,-3256.906145,-9992.780217,612.876398
6824.717200,-4367.215058,-9992.780217,1378.971896
6824.717524,-3849.070898,-9474.636058,1455.581446
6824.717849,-3701.029710,-8068.244768,1378.971896
6824.718173,-4885.359217,-8290.306550,1608.800546
6824.718497,-5995.668130,-8068.244768,1532.190996
6824.718821,-5551.544565,-7698.141797,-153.219100
6824.719145,-5625.565159,-7476.080014,-1302.362347
6824.719469,-4885.359217,-8068.244768,-1608.800546
6824.719793,-4441.235652,-7846.182985,-2451.505594
6824.720118,-4515.256246,-8734.430116,-1838.629195
6824.720442,-3923.091493,-10436.903782,-612.876398
6824.720766,-1480.411884,-10510.924376,-306.438199
6824.721090,-370.102971,-10140.821405,612.876398
6824.721414,-1110.308913,-10658.965565,3294.210641
6824.721738,-1406.391290,-10140.821405,4443.353888
6824.722063,-1332.370696,-9030.512492,3907.087040
6824.722387,-2738.761985,-9548.656652,3217.601092
6824.722711,-4367.215058,-8438.347739,1455.581446
6824.723035,-5107.421000,-7624.121203,-766.095498
6824.723359,-6291.750507,-7031.956449,-1838.629195
6824.723683,-6365.771101,-7105.977043,-2298.286494
6824.724007,-5403.503377,-5921.647536,-3830.477490
6824.724332,-5329.482782,-8290.306550,-2604.724693
6824.724656,-4515.256246,-9474.636058,-1608.800546
6824.724980,-1924.535449,-9696.697840,-919.314598
6824.725304,-592.164754,-9992.780217,306.438199
6824.725628,-814.226536,-11251.130318,3447.429741
6824.725952,-518.144159,-11325.150913,5132.839837
6824.726276,518.144159,-9252.574275,3983.696590
6824.726601,-740.205942,-9622.677246,4136.915689
6824.726925,-2738.761985,-9696.697840,2757.943793
6824.727249,-4589.276840,-8660.409521,459.657299
6824.727573,-6069.688724,-7994.224174,-1608.800546
6824.727897,-5625.565159,-7772.162391,-2221.676944
6824.728221,-4441.235652,-6809.894666,-3600.648841
6824.728545,-4737.318029,-7031.956449,-2604.724693
6824.728870,-6365.771101,-7994.224174,-612.876398
6824.729194,-4219.173869,-8956.491898,-229.828649
6824.729518,-2368.659014,-8808.450710,-229.828649
6824.729842,-1554.432478,-10288.862594,612.876398
6824.730166,-1924.535449,-10140.821405,2451.505594
6824.730490,-1850.514855,-10362.883188,2757.943793
6824.730814,-2294.638420,-10288.862594,3294.210641
6824.731139,-2368.659014,-9918.759623,3140.991542
6824.731463,-2516.700203,-9400.615463,919.314598
6824.731787,-4219.173869,-8734.430116,0.000000
6824.732111,-4663.297435,-8586.388927,-153.219100
6824.732435,-2960.823768,-7920.203579,-1608.800546
6824.732759,-2812.782580,-7254.018232,-1838.629195
6824.733083,-4589.276840,-7846.182985,383.047749
6824.733408,-4145.153275,-7920.203579,612.876398
6824.733732,-1850.514855,-7920.203579,-1378.971896
6824.734056,-2146.597232,-9474.636058,-612.876398
6824.734380,-3552.988522,-10066.800811,1149.143247
6824.734704,-3108.864956,-9474.636058,1838.629195
6824.735028,-2960.823768,-9252.574275,1838.629195
6824.735352,-3330.926739,-10140.821405,1532.190996
6824.735677,-2516.700203,-10140.821405,-306.438199
6824.736001,-3849.070898,-8438.347739,76.609550
6824.736325,-4219.173869,-9622.677246,1149.143247
6824.736649,-2442.679609,-8660.409521,536.266849
6824.736973,-2368.659014,-7105.977043,-459.657299
6824.737297,-4219.173869,-8586.388927,766.095498
6824.737621,-4219.173869,-9252.574275,689.485948
6824.737946,-2220.617826,-8586.388927,-842.705048
6824.738270,-2516.700203,-8882.471304,-1991.848295
6824.738594,-3701.029710,-8808.450710,1225.752797
6824.738918,-3997.112087,-8364.327145,1685.410096
6824.739242,-3775.050304,-9178.553681,1608.800546
6824.739566,-3849.070898,-10288.862594,689.485948
6824.739890,-3034.844362,-9918.759623,0.000000
6824.740215,-2812.782580,-8068.244768,0.000000
6824.740539,-3627.009116,-9326.594869,995.924147
6824.740863,-3478.967927,-8956.491898,1685.410096
6824.741187,-1924.535449,-8808.450710,383.047749
6824.741511,-3034.844362,-9104.533087,0.000000
6824.741835,-3627.009116,-9178.553681,842.705048
6824.742159,-2960.823768,-8586.388927,0.000000
6824.742484,-2294.638420,-8882.471304,-766.095498
6824.742808,-3330.926739,-10214.842000,842.705048
6824.743132,-3701.029710,-8586.388927,1838.629195
6824.743456,-3775.050304,-7624.121203,1838.629195
6824.743780,-4663.297435,-8956.491898,1455.581446
6824.744104,-3775.050304,-8882.471304,-306.438199
6824.744428,-3478.967927,-8660.409521,-2298.286494
6824.744753,-4515.256246,-9400.615463,-919.314598
6824.745077,-4663.297435,-8882.471304,1378.971896
6824.745401,-2146.597232,-8882.471304,842.705048
6824.745725,-2960.823768,-8882.471304,612.876398
6824.746049,-3923.091493,-9844.739029,1072.533697
6824.746373,-3330.926739,-9622.677246,-306.438199
6824.746698,-3108.864956,-9252.574275,-612.876398
6824.747022,-3627.009116,-9474.636058,766.095498
6824.747346,-3108.864956,-9104.533087,995.924147
6824.747670,-3182.885551,-7550.100608,1455.581446
6824.747994,-4441.235652,-8956.491898,1455.581446
6824.748318,-4071.132681,-8808.450710,229.828649
6824.748642,-3330.926739,-8142.265362,-766.095498
6824.748967,-3849.070898,-8734.430116,229.828649
6824.749291,-3627.009116,-9178.553681,1225.752797
6824.749615,-3108.864956,-8660.409521,383.047749
6824.749939,-3923.091493,-9030.512492,689.485948
6824.750263,-3552.988522,-9844.739029,383.047749
6824.750587,-2812.782580,-9548.656652,-459.657299
6824.750911,-2368.659014,-9474.636058,-383.047749
6824.751236,-2738.761985,-10214.842000,383.047749
6824.751560,-2220.617826,-9252.574275,1149.143247
6824.751884,-1776.494261,-7328.038826,919.314598
6824.752208,-2442.679609,-8956.491898,383.047749
6824.752532,-3701.029710,-8216.285956,1149.143247
6824.752856,-2664.741391,-8512.368333,-766.095498
6824.753180,-2960.823768,-8734.430116,-229.828649
6824.753505,-3182.885551,-8956.491898,1072.533697
6824.753829,-3182.885551,-8660.409521,1149.143247
6824.754153,-3108.864956,-9178.553681,995.924147
6824.754477,-4737.318029,-9548.656652,919.314598
6824.754801,-3404.947333,-9400.615463,-842.705048
6824.755125,-2516.700203,-8956.491898,-766.095498
6824.755449,-3627.009116,-9992.780217,0.000000
6824.755774,-3775.050304,-9474.636058,1149.143247
6824.756098,-2590.720797,-8142.265362,612.876398
6824.756422,-2812.782580,-8956.491898,612.876398
6824.756746,-3627.009116,-8808.450710,612.876398
6824.757070,-3552.988522,-8512.368333,0.000000
6824.757394,-2664.741391,-8142.265362,-229.828649
6824.757718,-2812.782580,-8586.388927,689.485948
6824.758043,-2368.659014,-9030.512492,612.876398
6824.758367,-2812.782580,-8660.409521,689.485948
6824.758691,-4367.215058,-9548.656652,1685.410096
6824.759015,-3182.885551,-9548.656652,1149.143247
6824.759339,-2368.659014,-9252.574275,-1225.752797
6824.759663,-4219.173869,-9474.636058,536.266849
6824.759987,-4885.359217,-9326.594869,1762.019645
6824.760312,-4441.235652,-9178.553681,1072.533697
6824.760636,-4663.297435,-8586.388927,612.876398
6824.760960,-5551.544565,-8512.368333,536.266849
6824.761284,-5107.421000,-8142.265362,-306.438199
6824.761608,-4515.256246,-7328.038826,-1915.238745
6824.761932,-4737.318029,-8364.327145,-689.485948
6824.762256,-3552.988522,-7698.141797,-229.828649
6824.762580,-4219.173869,-7328.038826,459.657299
6824.762904,-4293.194464,-8808.450710,1302.362347
6824.763228,-2960.823768,-9104.533087,1072.533697
6824.763552,-1776.494261,-9548.656652,-153.219100
6824.763877,-2664.741391,-10066.800811,536.266849
6824.764201,-2886.803174,-10510.924376,1225.752797
6824.764525,-2516.700203,-9400.615463,2757.943793
6824.764849,-2072.576638,-9474.636058,1685.410096
6824.765173,-2590.720797,-9326.594869,1302.362347
6824.765497,-3108.864956,-9326.594869,153.219100
6824.765821,-4145.153275,-8734.430116,0.000000
6824.766145,-3182.885551,-9178.553681,-383.047749
6824.766469,-3552.988522,-7698.141797,-383.047749
6824.766793,-3775.050304,-7105.977043,153.219100
6824.767117,-4811.338623,-8512.368333,1685.410096
6824.767441,-4219.173869,-8364.327145,229.828649
6824.767766,-2812.782580,-8882.471304,-1302.362347
6824.768090,-2738.761985,-9474.636058,-689.485948
6824.768414,-2812.782580,-9326.594869,612.876398
6824.768738,-2072.576638,-9474.636058,1685.410096
6824.769062,-2294.638420,-8364.327145,2145.067394
6824.769386,-2516.700203,-9548.656652,1302.362347
6824.769710,-2590.720797,-9696.697840,536.266849
6824.770034,-2960.823768,-9030.512492,536.266849
6824.770358,-4071.132681,-9474.636058,1302.362347
6824.770682,-4071.132681,-8586.388927,1149.143247
6824.771006,-3923.091493,-7624.121203,536.266849
6824.771330,-5699.585753,-7476.080014,229.828649
6824.771654,-6217.729913,-8734.430116,-153.219100
6824.771979,-5477.523971,-8290.306550,-1532.190996
6824.772303,-4959.379811,-8364.327145,-1302.362347
6824.772627,-5699.585753,-8660.409521,306.438199
6824.772951,-5255.462188,-7772.162391,1991.848295
6824.773275,-5181.441594,-8142.265362,1455.581446
6824.773599,-5033.400406,-8956.491898,766.095498
6824.773923,-4663.297435,-8290.306550,-383.047749
6824.774247,-4441.235652,-7920.203579,-459.657299
6824.774571,-4811.338623,-8882.471304,306.438199
6824.774895,-4441.235652,-8586.388927,919.314598
6824.775219,-3849.070898,-7994.224174,612.876398
6824.775543,-4515.256246,-8142.265362,612.876398
6824.775868,-5107.421000,-8956.491898,1378.971896
6824.776192,-3997.112087,-8734.430116,-536.266849
6824.776516,-3330.926739,-8734.430116,-919.314598
6824.776840,-4219.173869,-9030.512492,153.219100
6824.777164,-4737.318029,-8438.347739,1991.848295
6824.777488,-4811.338623,-7772.162391,1838.629195
6824.777812,-5107.421000,-8512.368333,612.876398
6824.778136,-4737.318029,-8660.409521,-153.219100
6824.778460,-3997.112087,-8068.244768,-842.705048
6824.778784,-5033.400406,-8438.347739,383.047749
6824.779108,-5107.421000,-8660.409521,766.095498
6824.779432,-3775.050304,-8808.450710,0.000000
6824.779756,-3849.070898,-8882.471304,-229.828649
6824.780081,-3997.112087,-9178.553681,536.266849
6824.780405,-2590.720797,-9548.656652,536.266849
6824.780729,-1850.514855,-9474.636058,306.438199
6824.781053,-2146.597232,-9844.739029,1225.752797
6824.781377,-2146.597232,-9030.512492,1991.848295
6824.781701,-2146.597232,-8216.285956,1915.238745
6824.782025,-3478.967927,-9030.512492,1991.848295
6824.782349,-4071.132681,-8734.430116,306.438199
6824.782673,-3256.906145,-8956.491898,-1378.971896
6824.782997,-5477.523971,-7846.182985,-612.876398
6824.783321,-4663.297435,-8734.430116,229.828649
6824.783645,-4515.256246,-8364.327145,459.657299
6824.783970,-4293.194464,-8882.471304,0.000000
6824.784294,-4959.379811,-9474.636058,383.047749
6824.784618,-3701.029710,-9474.636058,0.000000
6824.784942,-2664.741391,-9178.553681,0.000000
6824.785266,-3034.844362,-9252.574275,1762.019645
6824.785590,-2146.597232,-9622.677246,2911.162892
6824.785914,-1554.432478,-7920.203579,1838.629195
6824.786238,-2516.700203,-9326.594869,1991.848295
6824.786562,-3256.906145,-8586.388927,1225.752797
6824.786886,-2812.782580,-8660.409521,-383.047749
6824.787210,-3997.112087,-8068.244768,-689.485948
6824.787534,-4367.215058,-8068.244768,1149.143247
6824.787858,-3849.070898,-8734.430116,306.438199
6824.788183,-5033.400406,-8586.388927,383.047749
6824.788507,-6291.750507,-9030.512492,383.047749
6824.788831,-5699.585753,-9178.553681,-306.438199
6824.789155,-5107.421000,-8142.265362,-766.095498
6824.789479,-5403.503377,-9474.636058,306.438199
6824.789803,-5403.503377,-8216.285956,1532.190996
6824.790127,-4145.153275,-7105.977043,1225.752797
6824.790451,-5107.421000,-7846.182985,1532.190996
6824.790775,-5699.585753,-7772.162391,919.314598
6824.791099,-4737.318029,-8142.265362,-536.266849
6824.791423,-4441.235652,-8068.244768,-1378.971896
6824.791747,-3923.091493,-8364.327145,0.000000
6824.792072,-3701.029710,-7772.162391,842.705048
6824.792396,-4515.256246,-8734.430116,766.095498
6824.792720,-4663.297435,-8660.409521,919.314598
6824.793044,-3627.009116,-10214.842000,0.000000
6824.793368,-2886.803174,-8956.491898,-689.485948
6824.793692,-3330.926739,-10214.842000,689.485948
6824.794016,-4367.215058,-9844.739029,1991.848295
6824.794340,-3404.947333,-8438.347739,1838.629195
6824.794664,-4219.173869,-9178.553681,766.095498
6824.794988,-5033.400406,-8216.285956,1149.143247
6824.795312,-4959.379811,-8290.306550,0.000000
6824.795636,-4811.338623,-7772.162391,-1455.581446
6824.795960,-4737.318029,-8142.265362,-306.438199
6824.796285,-4515.256246,-8142.265362,0.000000
6824.796609,-4071.132681,-7031.956449,0.000000
6824.796933,-4737.318029,-8734.430116,842.705048
6824.797257,-3552.988522,-9548.656652,0.000000
6824.797581,-2146.597232,-8882.471304,-919.314598
6824.797905,-2072.576638,-10436.903782,0.000000
6824.798229,-2738.761985,-10288.862594,2298.286494
6824.798553,-2368.659014,-9622.677246,2451.505594
6824.798877,-1850.514855,-9918.759623,2068.457845
6824.799201,-3256.906145,-9696.697840,1915.238745
6824.799525,-3627.009116,-8808.450710,689.485948
6824.799849,-3923.091493,-8290.306550,-153.219100
6824.800174,-4145.153275,-8734.430116,0.000000
6824.800498,-4293.194464,-7994.224174,-229.828649
6824.800822,-4219.173869,-7402.059420,-689.485948
6824.801146,-5255.462188,-7550.100608,153.219100
6824.801470,-5329.482782,-8142.265362,459.657299
6824.801794,-3849.070898,-8068.244768,-766.095498
6824.802118,-3478.967927,-8216.285956,-306.438199
6824.802442,-3923.091493,-9326.594869,1455.581446
6824.802766,-4145.153275,-9104.533087,1991.848295
6824.803090,-3478.967927,-8438.347739,1762.019645
6824.803414,-3849.070898,-9548.656652,1455.581446
6824.803738,-3478.967927,-9030.512492,-229.828649
6824.804062,-3923.091493,-8734.430116,306.438199
6824.804387,-4663.297435,-8882.471304,919.314598
6824.804711,-3108.864956,-8882.471304,842.705048
6824.805035,-2368.659014,-8290.306550,0.000000
6824.805359,-4737.318029,-7772.162391,919.314598
6824.805683,-6143.709319,-9326.594869,1762.019645
6824.806007,-4663.297435,-8956.491898,0.000000
6824.806331,-2812.782580,-9030.512492,-1532.190996
6824.806655,-4145.153275,-8882.471304,-383.047749
6824.806979,-5773.606348,-7550.100608,1532.190996
6824.807303,-6365.771101,-7698.141797,1838.629195
6824.807627,-5403.503377,-8438.347739,612.876398
6824.807951,-4663.297435,-7994.224174,-919.314598
6824.808276,-4737.318029,-7920.203579,-1302.362347
6824.808600,-4959.379811,-8438.347739,0.000000
6824.808924,-4737.318029,-8586.388927,689.485948
6824.809248,-4071.132681,-8586.388927,0.000000
6824.809572,-4293.194464,-9030.512492,0.000000
6824.809896,-5181.441594,-9770.718434,1455.581446
6824.810220,-3775.050304,-9474.636058,995.924147
6824.810544,-2072.576638,-8882.471304,-306.438199
6824.810868,-2146.597232,-9992.780217,842.705048
6824.811192,-3478.967927,-9030.512492,1685.410096
6824.811516,-3849.070898,-7105.977043,2604.724693
6824.811840,-4441.235652,-8216.285956,1072.533697
6824.812164,-4293.194464,-8512.368333,-842.705048
6824.812489,-3849.070898,-8734.430116,-2221.676944
6824.812813,-5107.421000,-8068.244768,-1072.533697
6824.813137,-4811.338623,-9030.512492,1532.190996
6824.813461,-3404.947333,-7624.121203,1149.143247
6824.813785,-3256.906145,-8290.306550,383.047749
6824.814109,-4737.318029,-9770.718434,1838.629195
6824.814433,-3552.988522,-9400.615463,842.705048
6824.814757,-2812.782580,-9030.512492,0.000000
6824.815081,-2368.659014,-9918.759623,459.657299
6824.815405,-2368.659014,-9178.553681,1455.581446
6824.815729,-2738.761985,-8438.347739,2298.286494
6824.816053,-3404.947333,-10066.800811,2145.067394
6824.816378,-3108.864956,-8586.388927,1455.581446
6824.816702,-2146.597232,-8364.327145,-842.705048
6824.817026,-3701.029710,-8438.347739,-995.924147
6824.817350,-4293.194464,-9178.553681,1072.533697
6824.817674,-3775.050304,-8290.306550,995.924147
6824.817998,-3701.029710,-8438.347739,995.924147
6824.818322,-4663.297435,-8586.388927,306.438199
6824.818646,-5551.544565,-8586.388927,383.047749
6824.818970,-4737.318029,-8734.430116,-766.095498
6824.819294,-4219.173869,-9992.780217,-842.705048
6824.819618,-4219.173869,-9030.512492,0.000000
6824.819942,-4219.173869,-7846.182985,1378.971896
6824.820267,-4959.379811,-8808.450710,1762.019645
6824.820591,-4293.194464,-8438.347739,1991.848295
6824.820915,-3256.906145,-8734.430116,0.000000
6824.821239,-3330.926739,-8438.347739,-1149.143247
6824.821563,-4145.153275,-8586.388927,1072.533697
6824.821887,-3627.009116,-8068.244768,766.095498
6824.822211,-3330.926739,-8364.327145,459.657299
6824.822535,-4441.235652,-9622.677246,229.828649
6824.822859,-4071.132681,-9326.594869,536.266849
6824.823183,-3330.926739,-8438.347739,0.000000
6824.823507,-3330.926739,-9104.533087,229.828649
6824.823831,-3404.947333,-9030.512492,1455.581446
6824.824155,-3627.009116,-8364.327145,1225.752797
6824.824480,-5033.400406,-8808.450710,1378.971896
6824.824804,-6069.688724,-8956.491898,1149.143247
6824.825128,-5033.400406,-8068.244768,-459.657299
6824.825452,-3627.009116,-7920.203579,-1455.581446
6824.825776,-4367.215058,-7550.100608,153.219100
6824.826100,-4663.297435,-8142.265362,1149.143247
6824.826424,-4663.297435,-7402.059420,689.485948
6824.826748,-4737.318029,-9030.512492,536.266849
6824.827072,-3627.009116,-9622.677246,-459.657299
6824.827396,-2516.700203,-8956.491898,-1225.752797
6824.827720,-3330.926739,-9548.656652,689.485948
6824.828044,-4145.153275,-9474.636058,2911.162892
6824.828369,-2664.741391,-9104.533087,2298.286494
6824.828693,-3701.029710,-8660.409521,1991.848295
6824.829017,-5847.626942,-8586.388927,1991.848295
6824.829341,-5403.503377,-8438.347739,0.000000
6824.829665,-4589.276840,-7772.162391,-2451.505594
6824.829989,-4959.379811,-7772.162391,-1302.362347
6824.830313,-5403.503377,-7328.038826,0.000000
6824.830637,-5625.565159,-6365.771101,995.924147
6824.830961,-5847.626942,-8068.244768,995.924147
6824.831285,-4737.318029,-9252.574275,-612.876398
6824.831609,-3478.967927,-9252.574275,-1378.971896
6824.831933,-4071.132681,-9252.574275,153.219100
6824.832257,-4071.132681,-9992.780217,3830.477490
6824.832582,-2738.761985,-9326.594869,2604.724693
6824.832906,-2664.741391,-9030.512492,1149.143247
6824.833230,-3923.091493,-9770.718434,1455.581446
6824.833554,-4145.153275,-9326.594869,766.095498
6824.833878,-3997.112087,-7772.162391,-536.266849
6824.834202,-4441.235652,-7550.100608,0.000000
6824.834526,-4589.276840,-8364.327145,459.657299
6824.834850,-4219.173869,-7772.162391,229.828649
6824.835174,-5477.523971,-7476.080014,306.438199
6824.835498,-5625.565159,-8438.347739,459.657299
6824.835822,-4663.297435,-8364.327145,-536.266849
6824.836146,-3923.091493,-8586.388927,-1532.190996
6824.836471,-4071.132681,-9400.615463,536.266849
6824.836795,-4145.153275,-8808.450710,1532.190996
6824.837119,-3256.906145,-8438.347739,536.266849
6824.837443,-3701.029710,-8956.491898,1225.752797
6824.837767,-3775.050304,-8882.471304,766.095498
6824.838091,-3627.009116,-8956.491898,229.828649
6824.838415,-3923.091493,-9030.512492,536.266849
6824.838739,-3330.926739,-8734.430116,1225.752797
6824.839063,-2886.803174,-8290.306550,229.828649
6824.839387,-3849.070898,-7994.224174,1302.362347
6824.839711,-5181.441594,-9252.574275,766.095498
6824.840035,-4219.173869,-8660.409521,0.000000
6824.840359,-3552.988522,-8512.368333,-1225.752797
6824.840684,-4367.215058,-9474.636058,0.000000
6824.841008,-4589.276840,-8142.265362,1302.362347
6824.841332,-4145.153275,-7772.162391,842.705048
6824.841656,-4663.297435,-7920.203579,995.924147
6824.841980,-4367.215058,-8364.327145,0.000000
6824.842304,-4219.173869,-8364.327145,-306.438199
6824.842628,-4219.173869,-8290.306550,0.000000
6824.842952,-3552.988522,-9326.594869,842.705048
6824.843276,-2738.761985,-8808.450710,-459.657299
6824.843600,-3701.029710,-9252.574275,842.705048
6824.843924,-4737.318029,-9548.656652,1685.410096
6824.844248,-3034.844362,-9622.677246,536.266849
6824.844573,-2294.638420,-9844.739029,-995.924147
6824.844897,-2442.679609,-9844.739029,919.314598
6824.845221,-2812.782580,-8808.450710,1991.848295
6824.845545,-3256.906145,-7994.224174,2145.067394
6824.845869,-4367.215058,-8512.368333,1991.848295
6824.846193,-4367.215058,-8142.265362,0.000000
6824.846517,-4515.256246,-7994.224174,-842.705048
6824.846841,-5551.544565,-7105.977043,-536.266849
6824.847165,-5625.565159,-7846.182985,306.438199
6824.847489,-4885.359217,-8364.327145,-995.924147
6824.847813,-4959.379811,-8068.244768,-919.314598
6824.848137,-5625.565159,-9474.636058,0.000000
6824.848461,-4737.318029,-9474.636058,0.000000
6824.848786,-3552.988522,-9474.636058,306.438199
6824.849110,-2664.741391,-9696.697840,1072.533697
6824.849434,-2960.823768,-9030.512492,1685.410096
6824.849758,-3256.906145,-8882.471304,2145.067394
6824.850082,-3923.091493,-8808.450710,2374.896044
6824.850406,-3849.070898,-8882.471304,1149.143247
6824.850730,-3849.070898,-8512.368333,-612.876398
6824.851054,-4885.359217,-7476.080014,-995.924147
6824.851378,-6069.688724,-8586.388927,459.657299
6824.851702,-4367.215058,-7994.224174,-383.047749
6824.852026,-4293.194464,-8142.265362,0.000000
6824.852350,-5477.523971,-8438.347739,229.828649
6824.852675,-5181.441594,-8660.409521,383.047749
6824.852999,-4589.276840,-8290.306550,-536.266849
6824.853323,-3627.009116,-9400.615463,-689.485948
6824.853647,-3478.967927,-9030.512492,612.876398
6824.853971,-3108.864956,-8142.265362,1532.190996
6824.854295,-4293.194464,-8882.471304,2451.505594
6824.854619,-4367.215058,-8956.491898,1455.581446
6824.854943,-3404.947333,-8734.430116,-306.438199
6824.855267,-4219.173869,-8364.327145,-383.047749
6824.855591,-4293.194464,-9030.512492,1532.190996
6824.855915,-4293.194464,-8068.244768,995.924147
6824.856239,-3627.009116,-7402.059420,153.219100
6824.856563,-4589.276840,-9252.574275,689.485948
6824.856888,-4589.276840,-8956.491898,229.828649
6824.857212,-3627.009116,-8586.388927,76.609550
6824.857536,-3923.091493,-9474.636058,0.000000
6824.857860,-3627.009116,-9104.533087,612.876398
6824.858184,-3034.844362,-8068.244768,1072.533697
6824.858508,-3775.050304,-8068.244768,1532.190996
6824.858832,-4515.256246,-8956.491898,1378.971896
6824.859156,-3701.029710,-8364.327145,-383.047749
6824.859480,-3627.009116,-8438.347739,-1225.752797
6824.859804,-3627.009116,-9104.533087,-229.828649
6824.860128,-3034.844362,-8882.471304,229.828649
6824.860452,-3108.864956,-8586.388927,1149.143247
6824.860777,-3627.009116,-9474.636058,612.876398
6824.861101,-3330.926739,-9770.718434,1455.581446
6824.861425,-2886.803174,-9178.553681,995.924147
6824.861749,-2960.823768,-10362.883188,612.876398
6824.862073,-3701.029710,-9696.697840,1455.581446
6824.862397,-3256.906145,-8808.450710,1302.362347
6824.862721,-3478.967927,-8660.409521,919.314598
6824.863046,-4145.153275,-8956.491898,1532.190996
6824.863370,-4367.215058,-8512.368333,459.657299
6824.863694,-4293.194464,-7402.059420,-306.438199
6824.864018,-4515.256246,-7920.203579,0.000000
6824.864342,-4441.235652,-7846.182985,229.828649
6824.864666,-4367.215058,-7624.121203,-383.047749
6824.864991,-5477.523971,-8068.244768,76.609550
6824.865315,-4663.297435,-8808.450710,0.000000
6824.865639,-3701.029710,-8808.450710,-1149.143247
6824.865963,-3849.070898,-9474.636058,459.657299
6824.866287,-4219.173869,-10584.944971,1225.752797
6824.866611,-2960.823768,-9474.636058,1378.971896
6824.866936,-2664.741391,-8882.471304,1302.362347
6824.867260,-4071.132681,-9400.615463,1378.971896
6824.867584,-3627.009116,-9178.553681,536.266849
6824.867908,-3108.864956,-8216.285956,-1532.190996
6824.868232,-3552.988522,-8142.265362,76.609550
6824.868556,-3256.906145,-8438.347739,76.609550
6824.868881,-3256.906145,-8068.244768,229.828649
6824.869205,-4071.132681,-9178.553681,536.266849
6824.869529,-3627.009116,-9622.677246,0.000000
6824.869853,-2368.659014,-9104.533087,-689.485948
6824.870177,-1776.494261,-8882.471304,-306.438199
6824.870501,-2516.700203,-10214.842000,1455.581446
6824.870826,-2146.597232,-9770.718434,1608.800546
6824.871150,-1184.329507,-8808.450710,1149.143247
6824.871474,-1628.453072,-9326.594869,1302.362347
6824.871798,-2442.679609,-9030.512492,995.924147
6824.872122,-3108.864956,-9178.553681,383.047749
6824.872446,-3404.947333,-9178.553681,0.000000
6824.872771,-2442.679609,-9770.718434,229.828649
6824.873095,-3034.844362,-8660.409521,-153.219100
6824.873419,-3775.050304,-9104.533087,1072.533697
6824.873743,-4293.194464,-9622.677246,383.047749
6824.874067,-3034.844362,-9696.697840,-689.485948
6824.874391,-2220.617826,-9252.574275,-1378.971896
6824.874716,-2738.761985,-9548.656652,0.000000
6824.875040,-2368.659014,-9104.533087,1991.848295
6824.875364,-2368.659014,-7105.977043,1762.019645
6824.875688,-3330.926739,-8956.491898,2374.896044
6824.876012,-3997.112087,-8660.409521,1072.533697
6824.876336,-3775.050304,-8364.327145,0.000000
6824.876661,-4885.359217,-8438.347739,0.000000
6824.876985,-4515.256246,-8586.388927,0.000000
6824.877309,-3849.070898,-8438.347739,-842.705048
6824.877633,-4145.153275,-8586.388927,383.047749
6824.877957,-5625.565159,-9400.615463,1455.581446
6824.878281,-3923.091493,-9474.636058,0.000000
6824.878606,-2368.659014,-8734.430116,-919.314598
6824.878930,-2886.803174,-9844.739029,383.047749
6824.879254,-2960.823768,-9252.574275,2068.457845
6824.879578,-2738.761985,-7550.100608,2374.896044
6824.879902,-3330.926739,-8660.409521,2451.505594
6824.880226,-3552.988522,-8882.471304,1532.190996
6824.880551,-3256.906145,-8364.327145,-153.219100
6824.880875,-4663.297435,-8142.265362,-383.047749
6824.881199,-5255.462188,-9178.553681,689.485948
6824.881523,-4293.194464,-7624.121203,0.000000
6824.881847,-5181.441594,-7105.977043,76.609550
6824.882171,-5477.523971,-8438.347739,536.266849
6824.882496,-5329.482782,-8660.409521,-229.828649
6824.882820,-3701.029710,-9030.512492,-2145.067394
6824.883144,-3330.926739,-9400.615463,-1378.971896
6824.883468,-3256.906145,-9104.533087,383.047749
6824.883792,-2590.720797,-8808.450710,1455.581446
6824.884116,-2368.659014,-9844.739029,1991.848295
6824.884441,-2812.782580,-10140.821405,1762.019645
6824.884765,-1998.556043,-9696.697840,76.609550
6824.885089,-1924.535449,-9326.594869,0.000000
6824.885413,-2516.700203,-9844.739029,1685.410096
6824.885737,-2442.679609,-9400.615463,1378.971896
6824.886061,-1924.535449,-8438.347739,766.095498
6824.886386,-2812.782580,-9178.553681,919.314598
6824.886710,-3552.988522,-8660.409521,306.438199
6824.887034,-2516.700203,-8364.327145,-766.095498
6824.887358,-3108.864956,-9548.656652,-689.485948
6824.887682,-2812.782580,-9400.615463,306.438199
6824.888006,-2368.659014,-8808.450710,995.924147
6824.888331,-2664.741391,-8660.409521,1072.533697
6824.888655,-3552.988522,-9400.615463,1455.581446
6824.888979,-2294.638420,-9326.594869,229.828649
6824.889303,-1924.535449,-9104.533087,-1378.971896
6824.889627,-2590.720797,-8808.450710,689.485948
6824.889951,-2812.782580,-9548.656652,1608.800546
6824.890276,-2220.617826,-9030.512492,919.314598
6824.890600,-2960.823768,-9474.636058,1532.190996
6824.890924,-3627.009116,-9770.718434,1225.752797
6824.891248,-2590.720797,-9770.718434,153.219100
6824.891572,-2738.761985,-10955.047942,-612.876398
6824.891896,-3478.967927,-9770.718434,612.876398
6824.892221,-2516.700203,-8364.327145,306.438199
6824.892545,-3182.885551,-7994.224174,919.314598
6824.892869,-4515.256246,-8216.285956,1455.581446
6824.893193,-3701.029710,-8216.285956,0.000000
6824.893517,-3256.906145,-8068.244768,-995.924147
6824.893841,-4515.256246,-7624.121203,0.000000
6824.894166,-4515.256246,-8364.327145,689.485948
6824.894490,-4367.215058,-7254.018232,76.609550
6824.894814,-4589.276840,-8956.491898,459.657299
6824.895138,-4737.318029,-9844.739029,0.000000
6824.895462,-3849.070898,-9474.636058,-459.657299
6824.895786,-3849.070898,-9770.718434,306.438199
6824.896111,-3182.885551,-10288.862594,1072.533697
6824.896435,-2516.700203,-9400.615463,995.924147
6824.896759,-3330.926739,-8438.347739,1762.019645
6824.897083,-4885.359217,-9252.574275,2374.896044
6824.897407,-4071.132681,-8438.347739,306.438199
6824.897731,-3256.906145,-7846.182985,-1225.752797
6824.898056,-4811.338623,-7772.162391,-766.095498
6824.898380,-4145.153275,-8068.244768,689.485948
6824.898704,-3701.029710,-6957.935855,0.000000
6824.899028,-4515.256246,-8290.306550,76.609550
6824.899352,-4811.338623,-9548.656652,229.828649
6824.899676,-3701.029710,-8956.491898,-995.924147
6824.900001,-2368.659014,-9622.677246,-919.314598
6824.900325,-3108.864956,-10584.944971,919.314598
6824.900649,-2590.720797,-9548.656652,2221.676944
6824.900973,-2072.576638,-9252.574275,1762.019645
6824.901297,-3034.844362,-9548.656652,2374.896044
6824.901621,-1998.556043,-9474.636058,612.876398
6824.901946,-2294.638420,-8808.450710,-1072.533697
6824.902270,-3849.070898,-9178.553681,383.047749
6824.902594,-3775.050304,-8882.471304,1532.190996
6824.902918,-2072.576638,-8068.244768,536.266849
6824.903242,-2812.782580,-7846.182985,-536.266849
6824.903566,-3552.988522,-9400.615463,1302.362347
6824.903891,-2664.741391,-9474.636058,-536.266849
6824.904215,-2368.659014,-9252.574275,-612.876398
6824.904539,-3108.864956,-10510.924376,995.924147
6824.904863,-2738.761985,-9474.636058,1762.019645
6824.905187,-1554.432478,-8216.285956,1378.971896
6824.905511,-2294.638420,-8808.450710,1532.190996
6824.905836,-2960.823768,-8882.471304,919.314598
6824.906160,-2664.741391,-9326.594869,-842.705048
6824.906484,-3552.988522,-9178.553681,0.000000
6824.906808,-2960.823768,-8956.491898,-306.438199
6824.907132,-2442.679609,-8956.491898,-612.876398
6824.907456,-3775.050304,-9326.594869,766.095498
6824.907781,-3849.070898,-10214.842000,1378.971896
6824.908105,-2294.638420,-9992.780217,1149.143247
6824.908429,-2220.617826,-7772.162391,766.095498
6824.908753,-3849.070898,-9178.553681,2298.286494
6824.909077,-4219.173869,-8660.409521,2298.286494
6824.909401,-3849.070898,-8142.265362,536.266849
6824.909726,-4737.318029,-8512.368333,-689.485948
6824.910050,-5921.647536,-7328.038826,-689.485948
6824.910374,-5995.668130,-7550.100608,-995.924147
6824.910698,-5477.523971,-7550.100608,-1072.533697
6824.911022,-4515.256246,-9400.615463,-1072.533697
6824.911346,-3701.029710,-9104.533087,-919.314598
6824.911671,-3849.070898,-8438.347739,459.657299
6824.911995,-3997.112087,-9622.677246,2145.067394
6824.912319,-3108.864956,-9770.718434,1532.190996
6824.912643,-1332.370696,-9696.697840,1378.971896
6824.912967,-3034.844362,-10436.903782,919.314598
6824.913291,-4219.173869,-9622.677246,2757.943793
6824.913616,-3182.885551,-8142.265362,2068.457845
6824.913940,-3627.009116,-7994.224174,383.047749
6824.914264,-4737.318029,-8808.450710,-459.657299
6824.914588,-4219.173869,-8734.430116,-2604.724693
6824.914912,-4885.359217,-8586.388927,-1608.800546
6824.915236,-4293.194464,-8882.471304,-306.438199
6824.915561,-2146.597232,-8512.368333,-689.485948
6824.915885,-2442.679609,-8068.244768,919.314598
6824.916209,-3627.009116,-9474.636058,2987.772442
6824.916533,-2960.823768,-10140.821405,2374.896044
6824.916857,-1850.514855,-8216.285956,1072.533697
6824.917181,-2146.597232,-9696.697840,1838.629195
6824.917506,-4071.132681,-8956.491898,1685.410096
6824.917830,-4145.153275,-8586.388927,612.876398
6824.918154,-4737.318029,-9252.574275,-995.924147
6824.918478,-4589.276840,-9696.697840,-1838.629195
6824.918802,-3923.091493,-8290.306550,-2068.457845
6824.919126,-3182.885551,-8512.368333,-995.924147
6824.919450,-2738.761985,-8364.327145,1072.533697
6824.919775,-740.205942,-8808.450710,766.095498
6824.920099,-1332.370696,-8734.430116,1532.190996
6824.920423,-3108.864956,-9178.553681,2987.772442
6824.920747,-3108.864956,-9474.636058,2604.724693
6824.921071,-1850.514855,-8512.368333,306.438199
6824.921395,-2368.659014,-10658.965565,-536.266849
6824.921720,-4441.235652,-9326.594869,842.705048
6824.922044,-4515.256246,-8882.471304,1608.800546
6824.922368,-4293.194464,-8142.265362,995.924147
6824.922692,-3552.988522,-8734.430116,0.000000
6824.923016,-3034.844362,-8956.491898,-1532.190996
6824.923340,-3849.070898,-7698.141797,-1225.752797
6824.923665,-3182.885551,-9178.553681,995.924147
6824.923989,-1776.494261,-8660.409521,153.219100
6824.924313,-2516.700203,-7920.203579,689.485948
6824.924637,-3997.112087,-9252.574275,2221.676944
6824.924961,-2960.823768,-9326.594869,1608.800546
6824.925285,-2146.597232,-10214.842000,-612.876398
6824.925610,-2738.761985,-10362.883188,-459.657299
6824.925934,-3552.988522,-10362.883188,1608.800546
6824.926258,-3256.906145,-8216.285956,2068.457845
6824.926582,-3108.864956,-8216.285956,1762.019645
6824.926906,-3775.050304,-9770.718434,229.828649
6824.927230,-3701.029710,-8956.491898,-689.485948
6824.927555,-3849.070898,-7920.203579,-1149.143247
6824.927879,-3775.050304,-7994.224174,76.609550
6824.928203,-3256.906145,-8142.265362,-153.219100
6824.928527,-3330.926739,-8068.244768,-459.657299
6824.928851,-4737.318029,-9104.533087,689.485948
6824.929175,-4367.215058,-9252.574275,689.485948
6824.929500,-2072.576638,-9252.574275,-536.266849
6824.929824,-2812.782580,-9992.780217,0.000000
6824.930148,-3775.050304,-11029.068536,1838.629195
6824.930472,-2664.741391,-9474.636058,1685.410096
6824.930796,-2516.700203,-8142.265362,1685.410096
6824.931120,-4293.194464,-9178.553681,2451.505594
6824.931445,-3923.091493,-8808.450710,766.095498
6824.931769,-2960.823768,-7994.224174,-1455.581446
6824.932093,-3849.070898,-8734.430116,0.000000
6824.932417,-4145.153275,-8142.265362,229.828649
6824.932741,-3849.070898,-8364.327145,0.000000
6824.933065,-4293.194464,-8068.244768,0.000000
6824.933390,-4367.215058,-9252.574275,612.876398
6824.933714,-3256.906145,-9030.512492,-1685.410096
6824.934038,-3034.844362,-9104.533087,383.047749
6824.934362,-3330.926739,-9844.739029,1225.752797
6824.934686,-2220.617826,-9326.594869,1608.800546
6824.935010,-2368.659014,-8290.306550,1455.581446
6824.935335,-3108.864956,-9548.656652,1762.019645
6824.935659,-3330.926739,-9770.718434,766.095498
6824.935983,-2812.782580,-8956.491898,-612.876398
6824.936307,-3108.864956,-8438.347739,-153.219100
6824.936631,-3478.967927,-8882.471304,153.219100
6824.936955,-3923.091493,-8364.327145,76.609550
6824.937280,-4441.235652,-8216.285956,229.828649
6824.937604,-4515.256246,-9696.697840,0.000000
6824.937928,-3256.906145,-8216.285956,-536.266849
6824.938252,-3108.864956,-8512.368333,612.876398
6824.938576,-3627.009116,-8956.491898,459.657299
6824.938900,-3256.906145,-9474.636058,1915.238745
6824.939225,-2516.700203,-8882.471304,1149.143247
6824.939549,-2664.741391,-9030.512492,1225.752797
6824.939873,-3552.988522,-9252.574275,1225.752797
6824.940197,-2590.720797,-8956.491898,536.266849
6824.940521,-3034.844362,-8956.491898,-229.828649
6824.940845,-2960.823768,-9548.656652,76.609550
6824.941170,-2812.782580,-8216.285956,153.219100
6824.941494,-3404.947333,-8660.409521,612.876398
6824.941818,-4219.173869,-9400.615463,842.705048
6824.942142,-3034.844362,-9992.780217,-612.876398
6824.942466,-1850.514855,-8438.347739,-383.047749
6824.942790,-2886.803174,-9252.574275,536.266849
6824.943115,-3182.885551,-8512.368333,2298.286494
6824.943439,-1628.453072,-8660.409521,1685.410096
6824.943763,-2368.659014,-9474.636058,1455.581446
6824.944087,-3775.050304,-8956.491898,1455.581446
6824.944411,-3404.947333,-9030.512492,842.705048
6824.944735,-3923.091493,-8660.409521,0.000000
6824.945060,-4219.173869,-9474.636058,-153.219100
6824.945384,-2738.761985,-8364.327145,0.000000
6824.945708,-4737.318029,-8142.265362,-153.219100
6824.946032,-5107.421000,-9178.553681,766.095498
6824.946356,-3627.009116,-9474.636058,-306.438199
6824.946680,-2220.617826,-8808.450710,-1149.143247
6824.947005,-2590.720797,-9696.697840,0.000000
6824.947329,-2516.700203,-9844.739029,1685.410096
6824.947653,-2146.597232,-8586.388927,1838.629195
6824.947977,-2442.679609,-8956.491898,1838.629195
6824.948301,-3034.844362,-9252.574275,1838.629195
6824.948625,-3404.947333,-8586.388927,919.314598
6824.948950,-4071.132681,-8956.491898,459.657299
6824.949274,-4145.153275,-9474.636058,459.657299
6824.949598,-3997.112087,-8808.450710,-153.219100
6824.949922,-4737.318029,-8438.347739,-306.438199
6824.950246,-5921.647536,-8512.368333,459.657299
6824.950570,-5625.565159,-8882.471304,612.876398
6824.950895,-3849.070898,-8438.347739,-1455.581446
6824.951219,-3775.050304,-9326.594869,-1302.362347
6824.951543,-3923.091493,-8734.430116,766.095498
6824.951867,-3182.885551,-8142.265362,1378.971896
6824.952191,-2738.761985,-8586.388927,2145.067394
6824.952515,-3627.009116,-8586.388927,1838.629195
6824.952840,-3552.988522,-9178.553681,306.438199
6824.953164,-3256.906145,-8512.368333,-306.438199
6824.953488,-3627.009116,-9474.636058,229.828649
6824.953812,-2960.823768,-9252.574275,-229.828649
6824.954136,-2664.741391,-8586.388927,0.000000
6824.954460,-4071.132681,-9252.574275,995.924147
6824.954785,-3775.050304,-10140.821405,1302.362347
6824.955109,-2664.741391,-9474.636058,-612.876398
6824.955433,-1850.514855,-9770.718434,-306.438199
6824.955757,-2812.782580,-10214.842000,1302.362347
6824.956081,-2664.741391,-8734.430116,2221.676944
6824.956405,-2368.659014,-8882.471304,1149.143247
6824.956730,-3701.029710,-9474.636058,1608.800546
6824.957054,-2886.803174,-8068.244768,76.609550
6824.957378,-2960.823768,-7698.141797,-612.876398
6824.957702,-3701.029710,-8660.409521,306.438199
6824.958026,-3256.906145,-8586.388927,459.657299
6824.958350,-2442.679609,-8068.244768,76.609550
6824.958675,-4071.132681,-8438.347739,1149.143247
6824.958999,-4145.153275,-9252.574275,1991.848295
6824.959323,-2812.782580,-9548.656652,0.000000
6824.959647,-2368.659014,-9548.656652,-1455.581446
6824.959971,-3182.885551,-10510.924376,766.095498
6824.960295,-2886.803174,-9252.574275,1225.752797
6824.960620,-3108.864956,-8660.409521,1532.190996
6824.960944,-4293.194464,-9696.697840,2145.067394
6824.961268,-3627.009116,-8586.388927,459.657299
6824.961592,-3923.091493,-7476.080014,-153.219100
6824.961916,-5477.523971,-8290.306550,0.000000
6824.962240,-5551.544565,-7550.100608,459.657299
6824.962565,-5551.544565,-6957.935855,-459.657299
6824.962889,-6587.832884,-7476.080014,0.000000
6824.963213,-6883.915261,-8068.244768,153.219100
6824.963537,-5255.462188,-8068.244768,-1149.143247
6824.963861,-4515.256246,-8734.430116,-1762.019645
6824.964186,-5403.503377,-9548.656652,0.000000
6824.964510,-4219.173869,-8956.491898,766.095498
6824.964834,-3478.967927,-7994.224174,1685.410096
6824.965158,-4071.132681,-9104.533087,2911.162892
6824.965483,-4367.215058,-8364.327145,1608.800546
6824.965807,-3701.029710,-9030.512492,-229.828649
6824.966131,-4737.318029,-8586.388927,-689.485948
6824.966455,-5477.523971,-8808.450710,1072.533697
6824.966779,-5033.400406,-7624.121203,76.609550
6824.967104,-5033.400406,-7328.038826,612.876398
6824.967428,-6069.688724,-8512.368333,612.876398
6824.967752,-5255.462188,-8882.471304,-766.095498
6824.968076,-4515.256246,-8808.450710,-2145.067394
6824.968401,-4441.235652,-8808.450710,0.000000
6824.968725,-4737.318029,-8142.265362,1532.190996
6824.969049,-2516.700203,-7550.100608,1072.533697
6824.969373,-3552.988522,-8956.491898,1685.410096
6824.969697,-3997.112087,-9474.636058,995.924147
6824.970022,-2738.761985,-9104.533087,-306.438199
6824.970346,-3034.844362,-9104.533087,0.000000
6824.970670,-3256.906145,-8660.409521,1455.581446
6824.970994,-2664.741391,-9252.574275,0.000000
6824.971319,-3627.009116,-8956.491898,842.705048
6824.971643,-3997.112087,-9844.739029,153.219100
6824.971967,-3701.029710,-9696.697840,-459.657299
6824.972291,-2886.803174,-8586.388927,-766.095498
6824.972615,-3478.967927,-9844.739029,536.266849
6824.972940,-3330.926739,-8808.450710,1915.238745
6824.973264,-2368.659014,-7994.224174,1762.019645
6824.973588,-4071.132681,-8216.285956,1685.410096
6824.973912,-3923.091493,-8438.347739,306.438199
6824.974237,-3627.009116,-8660.409521,-306.438199
6824.974561,-3478.967927,-8586.388927,-842.705048
6824.974885,-3552.988522,-8808.450710,0.000000
6824.975209,-3256.906145,-8512.368333,536.266849
6824.975533,-2886.803174,-9030.512492,766.095498
6824.975858,-3627.009116,-9252.574275,1991.848295
6824.976182,-2812.782580,-9844.739029,1838.629195
6824.976506,-2368.659014,-9252.574275,383.047749
6824.976830,-3182.885551,-9326.594869,1072.533697
6824.977155,-4071.132681,-9622.677246,2145.067394
6824.977479,-3627.009116,-7772.162391,689.485948
6824.977803,-3701.029710,-8586.388927,153.219100
6824.978127,-5847.626942,-7846.182985,306.438199
6824.978451,-5403.503377,-7994.224174,-689.485948
6824.978776,-5477.523971,-7698.141797,-1225.752797
6824.979100,-5255.462188,-7994.224174,0.000000
6824.979424,-5033.400406,-8216.285956,0.000000
6824.979748,-5477.523971,-7476.080014,306.438199
6824.980073,-5551.544565,-8660.409521,1685.410096
6824.980397,-5107.421000,-8660.409521,536.266849
6824.980721,-3330.926739,-8660.409521,-842.705048
6824.981045,-4515.256246,-8586.388927,76.609550
6824.981369,-5181.441594,-9400.615463,1838.629195
6824.981694,-4589.276840,-8586.388927,1225.752797
6824.982018,-4071.132681,-8364.327145,153.219100
6824.982342,-4811.338623,-8660.409521,306.438199
6824.982666,-4663.297435,-7772.162391,306.438199
6824.982991,-4663.297435,-8290.306550,-536.266849
6824.983315,-4811.338623,-8142.265362,0.000000
6824.983639,-3997.112087,-8734.430116,-153.219100
6824.983963,-4219.173869,-7772.162391,-689.485948
6824.984287,-5033.400406,-8882.471304,1149.143247
6824.984612,-4737.318029,-9252.574275,153.219100
6824.984936,-2664.741391,-9030.512492,-766.095498
6824.985260,-3108.864956,-10066.800811,-306.438199
6824.985584,-4219.173869,-9252.574275,1225.752797
6824.985909,-3849.070898,-8956.491898,2374.896044
6824.986233,-3182.885551,-8882.471304,1072.533697
6824.986557,-3701.029710,-9326.594869,766.095498
6824.986881,-3997.112087,-8882.471304,-306.438199
6824.987205,-3923.091493,-8142.265362,383.047749
6824.987530,-3627.009116,-8882.471304,536.266849
6824.987854,-3108.864956,-8216.285956,153.219100
6824.988178,-2738.761985,-7994.224174,0.000000
6824.988502,-4145.153275,-8438.347739,536.266849
6824.988827,-4145.153275,-9252.574275,919.314598
6824.989151,-2960.823768,-9474.636058,-612.876398
6824.989475,-2442.679609,-10066.800811,-459.657299
6824.989799,-2738.761985,-10510.924376,842.705048
6824.990123,-3108.864956,-8438.347739,2298.286494
6824.990448,-3478.967927,-9474.636058,1762.019645
6824.990772,-3775.050304,-9326.594869,1225.752797
6824.991096,-3182.885551,-8364.327145,0.000000
6824.991420,-4071.132681,-8216.285956,-459.657299
6824.991745,-4441.235652,-8216.285956,153.219100
6824.992069,-3701.029710,-7920.203579,-306.438199
6824.992393,-3182.885551,-7624.121203,-612.876398
6824.992717,-4219.173869,-8142.265362,383.047749
6824.993041,-5033.400406,-8364.327145,1378.971896
6824.993366,-3404.947333,-9326.594869,229.828649
6824.993690,-2368.659014,-9770.718434,-383.047749
6824.994014,-3627.009116,-9696.697840,1149.143247
6824.994338,-4145.153275,-8142.265362,2757.943793
6824.994663,-2960.823768,-8808.450710,1762.019645
6824.994987,-4145.153275,-9400.615463,995.924147
6824.995311,-4589.276840,-8882.471304,-612.876398
6824.995635,-5255.462188,-8142.265362,-1072.533697
6824.995959,-6365.771101,-7698.141797,76.609550
6824.996284,-5403.503377,-7846.182985,0.000000
6824.996608,-3404.947333,-7772.162391,-2451.505594
6824.996932,-5625.565159,-7772.162391,-995.924147
6824.997256,-6439.791695,-9104.533087,995.924147
6824.997581,-4515.256246,-8586.388927,536.266849
6824.997905,-3627.009116,-8734.430116,-153.219100
6824.998229,-4293.194464,-9770.718434,1072.533697
6824.998553,-3775.050304,-8512.368333,1455.581446
6824.998877,-3256.906145,-7994.224174,1149.143247
6824.999202,-3552.988522,-9844.739029,689.485948
6824.999526,-4885.359217,-8808.450710,995.924147
6824.999850,-4885.359217,-7994.224174,-229.828649
6825.000174,-4737.318029,-8068.244768,0.000000
6825.000499,-4219.173869,-8290.306550,-153.219100
6825.000823,-4071.132681,-8956.491898,-689.485948
6825.001147,-4737.318029,-8660.409521,0.000000
6825.001471,-4737.318029,-8956.491898,1225.752797
6825.001795,-4071.132681,-7698.141797,1608.800546
6825.002120,-3849.070898,-8290.306550,229.828649
6825.002444,-4071.132681,-9474.636058,-229.828649
6825.002768,-3034.844362,-8882.471304,0.000000
6825.003092,-2368.659014,-8364.327145,-306.438199
6825.003417,-3627.009116,-8364.327145,459.657299
6825.003741,-3849.070898,-9252.574275,1762.019645
6825.004065,-2146.597232,-9326.594869,-153.219100
6825.004389,-1850.514855,-9474.636058,-383.047749
6825.004713,-2072.576638,-9992.780217,1072.533697
6825.005038,-1850.514855,-9252.574275,1685.410096
6825.005362,-2368.659014,-9178.553681,2221.676944
6825.005686,-2960.823768,-10140.821405,2604.724693
6825.006010,-4441.235652,-9252.574275,2298.286494
6825.006335,-4589.276840,-8142.265362,76.609550
6825.006659,-5255.462188,-8734.430116,383.047749
6825.006983,-4885.359217,-7920.203579,-766.095498
6825.007307,-4737.318029,-6883.915261,-1685.410096
6825.007631,-6143.709319,-7476.080014,-995.924147
6825.007956,-6217.729913,-7698.141797,-612.876398
6825.008280,-3627.009116,-8438.347739,-1455.581446
6825.008604,-2960.823768,-8660.409521,-1991.848295
6825.008928,-3182.885551,-9178.553681,229.828649
6825.009253,-2072.576638,-9474.636058,2068.457845
6825.009577,-1406.391290,-9770.718434,2987.772442
6825.009901,-2146.597232,-11029.068536,3677.258390
6825.010225,-2738.761985,-10436.903782,2681.334243
6825.010549,-3552.988522,-8586.388927,2451.505594
6825.010874,-4219.173869,-9030.512492,919.314598
6825.011198,-5033.400406,-8734.430116,383.047749
6825.011522,-5255.462188,-7105.977043,-459.657299
6825.011846,-6735.874072,-7179.997637,-306.438199
6825.012171,-7698.141797,-6735.874072,-919.314598
6825.012495,-6661.853478,-6809.894666,-2298.286494
6825.012819,-5847.626942,-7254.018232,-2834.553343
6825.013143,-5107.421000,-7772.162391,-1991.848295
6825.013467,-2516.700203,-8290.306550,0.000000
6825.013792,-2368.659014,-7920.203579,1455.581446
6825.014116,-3775.050304,-10066.800811,3217.601092
6825.014440,-3182.885551,-11251.130318,2987.772442
6825.014764,-1850.514855,-10066.800811,1378.971896
6825.015089,-2146.597232,-10436.903782,1685.410096
6825.015413,-4145.153275,-9844.739029,1991.848295
6825.015737,-4515.256246,-9178.553681,2068.457845
6825.016061,-4959.379811,-8882.471304,995.924147
6825.016385,-4959.379811,-7698.141797,76.609550
6825.016710,-4885.359217,-7254.018232,-1532.190996
6825.017034,-6217.729913,-6883.915261,-2145.067394
6825.017358,-5773.606348,-7698.141797,-995.924147
6825.017682,-3997.112087,-7624.121203,-1378.971896
6825.018007,-3775.050304,-7402.059420,-229.828649
6825.018331,-5255.462188,-8808.450710,1838.629195
6825.018655,-5033.400406,-9178.553681,1838.629195
6825.018979,-3775.050304,-8956.491898,153.219100
6825.019303,-2960.823768,-10584.944971,0.000000
6825.019628,-4145.153275,-10288.862594,766.095498
6825.019952,-3775.050304,-9252.574275,1991.848295
6825.020276,-3478.967927,-8438.347739,2451.505594
6825.020600,-2960.823768,-9474.636058,1072.533697
6825.020925,-3552.988522,-8142.265362,0.000000
6825.021249,-4589.276840,-7920.203579,-766.095498
6825.021573,-4737.318029,-8956.491898,153.219100
6825.021897,-3108.864956,-8290.306550,-459.657299
6825.022221,-2738.761985,-7254.018232,-383.047749
6825.022546,-4737.318029,-8364.327145,842.705048
6825.022870,-4737.318029,-9326.594869,1302.362347
6825.023194,-3552.988522,-8734.430116,153.219100
6825.023518,-3256.906145,-9918.759623,0.000000
6825.023843,-4367.215058,-9770.718434,1225.752797
6825.024167,-4145.153275,-8586.388927,2068.457845
6825.024491,-4071.132681,-8216.285956,2145.067394
6825.024815,-4737.318029,-9696.697840,1685.410096
6825.025139,-4515.256246,-8216.285956,-766.095498
6825.025464,-4071.132681,-7179.997637,-1302.362347
6825.025788,-4959.379811,-8438.347739,0.000000
6825.026112,-4589.276840,-7550.100608,0.000000
6825.026436,-3552.988522,-7698.141797,-383.047749
6825.026761,-4737.318029,-8216.285956,459.657299
6825.027085,-5773.606348,-9474.636058,1072.533697
6825.027409,-4293.194464,-8216.285956,-612.876398
6825.027733,-3552.988522,-9326.594869,0.000000
6825.028057,-3627.009116,-10214.842000,612.876398
6825.028382,-3256.906145,-9400.615463,1455.581446
6825.028706,-3701.029710,-8142.265362,2068.457845
6825.029030,-3849.070898,-9548.656652,2374.896044
6825.029354,-3923.091493,-8956.491898,459.657299
6825.029679,-3552.988522,-8068.244768,-306.438199
6825.030003,-4589.276840,-7476.080014,-229.828649
6825.030327,-4367.215058,-8142.265362,-153.219100
6825.030651,-3923.091493,-7402.059420,-842.705048
6825.030975,-4219.173869,-8068.244768,-306.438199
6825.031300,-4959.379811,-9030.512492,0.000000
6825.031624,-4145.153275,-8882.471304,-612.876398
6825.031948,-3478.967927,-9030.512492,0.000000
6825.032272,-2664.741391,-9696.697840,459.657299
6825.032597,-2812.782580,-9400.615463,2298.286494
6825.032921,-3256.906145,-8290.306550,2451.505594
6825.033245,-3997.112087,-9474.636058,2834.553343
6825.033569,-3923.091493,-9326.594869,689.485948
6825.033893,-3404.947333,-8660.409521,-1149.143247
6825.034218,-4071.132681,-8438.347739,-536.266849
6825.034542,-5255.462188,-8660.409521,612.876398
6825.034866,-4737.318029,-7994.224174,-153.219100
6825.035190,-4515.256246,-7772.162391,-612.876398
6825.035515,-5107.421000,-8734.430116,-306.438199
6825.035839,-4589.276840,-8364.327145,229.828649
6825.036163,-3775.050304,-7920.203579,0.000000
6825.036487,-3256.906145,-8808.450710,612.876398
6825.036811,-3627.009116,-8364.327145,1455.581446
6825.037136,-2368.659014,-7846.182985,689.485948
6825.037460,-4071.132681,-8808.450710,2221.676944
6825.037784,-4589.276840,-9474.636058,1685.410096
6825.038108,-3552.988522,-8882.471304,-383.047749
6825.038433,-4737.318029,-9252.574275,-536.266849
6825.038757,-5329.482782,-9326.594869,536.266849
6825.039081,-4515.256246,-8734.430116,-229.828649
6825.039405,-4811.338623,-8586.388927,0.000000
6825.039729,-5921.647536,-9030.512492,229.828649
6825.040054,-4515.256246,-8808.450710,-306.438199
6825.040378,-4145.153275,-7846.182985,-766.095498
6825.040702,-4515.256246,-8808.450710,536.266849
6825.041026,-3404.947333,-8290.306550,1455.581446
6825.041351,-3034.844362,-7254.018232,766.095498
6825.041675,-3923.091493,-8068.244768,1685.410096
6825.041999,-4885.359217,-8438.347739,1532.190996
6825.042323,-3923.091493,-8808.450710,-306.438199
6825.042647,-3849.070898,-8512.368333,-995.924147
6825.042972,-4441.235652,-9474.636058,306.438199
6825.043296,-4071.132681,-8364.327145,612.876398
6825.043620,-3923.091493,-8956.491898,1302.362347
6825.043944,-4441.235652,-9548.656652,536.266849
6825.044269,-3404.947333,-9178.553681,0.000000
6825.044593,-2960.823768,-9178.553681,-1072.533697
6825.044917,-3182.885551,-9474.636058,0.000000
6825.045241,-3552.988522,-9548.656652,1302.362347
6825.045565,-2886.803174,-8142.265362,1378.971896
6825.045890,-3256.906145,-8364.327145,1838.629195
6825.046214,-4441.235652,-8364.327145,2068.457845
6825.046538,-4367.215058,-8068.244768,919.314598
6825.046862,-3923.091493,-8438.347739,-766.095498
6825.047187,-4589.276840,-8142.265362,383.047749
6825.047511,-4959.379811,-7994.224174,612.876398
6825.047835,-5107.421000,-7698.141797,76.609550
6825.048159,-5181.441594,-8808.450710,0.000000
6825.048483,-5181.441594,-9178.553681,-1072.533697
6825.048808,-3849.070898,-7994.224174,-1991.848295
6825.049132,-3701.029710,-9474.636058,-995.924147
6825.049456,-3627.009116,-9548.656652,766.095498
6825.049780,-2368.659014,-9474.636058,1455.581446
6825.050105,-1924.535449,-8956.491898,1838.629195
6825.050429,-3034.844362,-9326.594869,2911.162892
6825.050753,-2442.679609,-9030.512492,1685.410096
6825.051077,-2886.803174,-8808.450710,536.266849
6825.051401,-4293.194464,-9104.533087,842.705048
6825.051726,-4367.215058,-8216.285956,383.047749
6825.052050,-4589.276840,-7624.121203,306.438199
6825.052374,-5995.668130,-8290.306550,536.266849
6825.052698,-5921.647536,-8956.491898,-306.438199
6825.053023,-4367.215058,-8808.450710,-1762.019645
6825.053347,-4219.173869,-8586.388927,-1378.971896
6825.053671,-4071.132681,-8882.471304,536.266849
6825.053995,-3552.988522,-8216.285956,766.095498
6825.054319,-2812.782580,-8364.327145,306.438199
6825.054644,-3330.926739,-9474.636058,689.485948
6825.054968,-2442.679609,-9178.553681,536.266849
6825.055292,-2146.597232,-8956.491898,0.000000
6825.055616,-2664.741391,-8882.471304,1072.533697
6825.055941,-1776.494261,-9844.739029,1072.533697
6825.056265,-1628.453072,-9400.615463,383.047749
6825.056589,-2368.659014,-10066.800811,995.924147
6825.056913,-3108.864956,-9770.718434,1072.533697
6825.057237,-2294.638420,-9992.780217,459.657299
6825.057562,-1998.556043,-9696.697840,0.000000
6825.057886,-2368.659014,-9918.759623,995.924147
6825.058210,-2146.597232,-8956.491898,1072.533697
6825.058534,-2146.597232,-7920.203579,153.219100
6825.058859,-3108.864956,-8882.471304,995.924147
6825.059183,-3552.988522,-8364.327145,536.266849
6825.059507,-3034.844362,-8068.244768,-383.047749
6825.059831,-3701.029710,-8882.471304,-766.095498
6825.060155,-3775.050304,-8438.347739,76.609550
6825.060480,-2960.823768,-8660.409521,229.828649
6825.060804,-4219.173869,-9104.533087,76.609550
6825.061128,-3923.091493,-10584.944971,766.095498
6825.061452,-3182.885551,-10288.862594,306.438199
6825.061777,-2220.617826,-10510.924376,76.609550
6825.062101,-2368.659014,-10732.986159,1608.800546
6825.062425,-2442.679609,-9770.718434,1838.629195
6825.062749,-2220.617826,-9178.553681,1378.971896
6825.063073,-3330.926739,-8956.491898,1838.629195
6825.063398,-4071.132681,-8438.347739,612.876398
6825.063722,-3849.070898,-7254.018232,-536.266849
6825.064046,-4145.153275,-7550.100608,0.000000
6825.064370,-4589.276840,-7846.182985,459.657299
6825.064694,-3627.009116,-7031.956449,-459.657299
6825.065019,-4589.276840,-7550.100608,0.000000
6825.065343,-4663.297435,-9030.512492,1072.533697
6825.065667,-3627.009116,-9474.636058,-612.876398
6825.065991,-3256.906145,-9696.697840,-919.314598
6825.066315,-3404.947333,-10140.821405,536.266849
6825.066639,-2664.741391,-10140.821405,1685.410096
6825.066964,-2368.659014,-8660.409521,1608.800546
6825.067288,-3552.988522,-9104.533087,2374.896044
6825.067612,-3478.967927,-9104.533087,1149.143247
6825.067936,-3552.988522,-8512.368333,306.438199
6825.068260,-4293.194464,-7846.182985,383.047749
6825.068585,-4737.318029,-7698.141797,919.314598
6825.068909,-4811.338623,-7179.997637,76.609550
6825.069233,-5107.421000,-7105.977043,-229.828649
6825.069557,-5181.441594,-8068.244768,-383.047749
6825.069881,-4811.338623,-8290.306550,-766.095498
6825.070206,-4219.173869,-8586.388927,-1608.800546
6825.070530,-3552.988522,-9030.512492,-306.438199
6825.070854,-3478.967927,-9622.677246,842.705048
6825.071178,-2442.679609,-8956.491898,1378.971896
6825.071502,-2220.617826,-10436.903782,1302.362347
6825.071827,-2812.782580,-10288.862594,919.314598
6825.072151,-1850.514855,-9474.636058,0.000000
6825.072475,-1480.411884,-9474.636058,-383.047749
6825.072799,-2368.659014,-9992.780217,1302.362347
6825.073123,-2294.638420,-9474.636058,1302.362347
6825.073448,-1628.453072,-9622.677246,766.095498
6825.073772,-2146.597232,-8808.450710,919.314598
6825.074096,-2294.638420,-9992.780217,995.924147
6825.074420,-2072.576638,-7994.224174,0.000000
6825.074744,-2368.659014,-9770.718434,0.000000
6825.075069,-2886.803174,-8808.450710,536.266849
6825.075393,-2442.679609,-8216.285956,919.314598
6825.075717,-3256.906145,-8216.285956,842.705048
6825.076041,-3923.091493,-8882.471304,766.095498
6825.076365,-3627.009116,-9178.553681,0.000000
6825.076690,-3034.844362,-8808.450710,-1685.410096
6825.077014,-3552.988522,-10140.821405,0.000000
6825.077338,-3034.844362,-8734.430116,536.266849
6825.077662,-2590.720797,-9474.636058,689.485948
6825.077986,-3256.906145,-9326.594869,612.876398
6825.078311,-1850.514855,-10436.903782,383.047749
6825.078635,-1406.391290,-9474.636058,-459.657299
6825.078959,-2146.597232,-9918.759623,1532.190996
6825.079283,-2368.659014,-9548.656652,1915.238745
6825.079607,-2072.576638,-8660.409521,1608.800546
6825.079932,-3108.864956,-8142.265362,1685.410096
6825.080256,-5255.462188,-8216.285956,1455.581446
6825.080580,-5329.482782,-8586.388927,-76.609550
6825.080904,-5255.462188,-7624.121203,-1149.143247
6825.081228,-5107.421000,-8438.347739,-689.485948
6825.081553,-5181.441594,-7105.977043,-536.266849
6825.081877,-4885.359217,-7772.162391,-306.438199
6825.082201,-5625.565159,-8586.388927,76.609550
6825.082525,-4071.132681,-9474.636058,0.000000
6825.082849,-2516.700203,-8734.430116,-919.314598
6825.083174,-2738.761985,-9252.574275,306.438199
6825.083498,-3108.864956,-10510.924376,919.314598
6825.083822,-1998.556043,-9178.553681,1532.190996
6825.084146,-1924.535449,-9252.574275,1149.143247
6825.084470,-4367.215058,-9696.697840,1762.019645
6825.084795,-4219.173869,-8882.471304,919.314598
6825.085119,-3552.988522,-8882.471304,-995.924147
6825.085443,-3849.070898,-8438.347739,-383.047749
6825.085767,-4737.318029,-8438.347739,0.000000
6825.086091,-4663.297435,-7031.956449,612.876398
6825.086416,-4367.215058,-8512.368333,536.266849
6825.086740,-4441.235652,-9326.594869,-306.438199
6825.087064,-4071.132681,-8808.450710,-1225.752797
6825.087388,-4071.132681,-9178.553681,-383.047749
6825.087712,-3997.112087,-8956.491898,1455.581446
6825.088036,-1924.535449,-9474.636058,1302.362347
6825.088361,-1258.350101,-8882.471304,689.485948
6825.088685,-3108.864956,-9992.780217,1685.410096
6825.089009,-3256.906145,-8956.491898,1455.581446
6825.089333,-2220.617826,-8660.409521,536.266849
6825.089657,-2294.638420,-9104.533087,229.828649
6825.089982,-2516.700203,-8882.471304,612.876398
6825.090306,-2072.576638,-8142.265362,306.438199
6825.090630,-2886.803174,-8512.368333,766.095498
6825.090954,-4071.132681,-10140.821405,383.047749
6825.091278,-3775.050304,-9548.656652,-153.219100
6825.091603,-3256.906145,-9474.636058,0.000000
6825.091927,-2738.761985,-9474.636058,1072.533697
6825.092251,-2072.576638,-8660.409521,1072.533697
6825.092575,-2368.659014,-8364.327145,1915.238745
6825.092899,-3627.009116,-9400.615463,1838.629195
6825.093224,-3182.885551,-7994.224174,1455.581446
6825.093548,-2368.659014,-7254.018232,-229.828649
6825.093872,-3256.906145,-9326.594869,-229.828649
6825.094196,-2886.803174,-9178.553681,-689.485948
6825.094520,-1702.473667,-9030.512492,-383.047749
6825.094845,-2664.741391,-9326.594869,689.485948
6825.095169,-3182.885551,-9548.656652,2145.067394
6825.095493,-2664.741391,-10288.862594,306.438199
6825.095817,-1998.556043,-9770.718434,-153.219100
6825.096141,-2220.617826,-10510.924376,459.657299
6825.096466,-3256.906145,-9252.574275,1455.581446
6825.096790,-4219.173869,-7994.224174,2451.505594
6825.097114,-5329.482782,-8142.265362,1455.581446
6825.097438,-5773.606348,-7994.224174,0.000000
6825.097762,-5921.647536,-7179.997637,-1532.190996
6825.098087,-6809.894666,-7328.038826,-1991.848295
6825.098411,-6587.832884,-8068.244768,-1685.410096
6825.098735,-5107.421000,-7550.100608,-1838.629195
6825.099059,-5107.421000,-7846.182985,-995.924147
6825.099383,-4811.338623,-9178.553681,459.657299
6825.099708,-3775.050304,-9474.636058,612.876398
6825.100032,-1924.535449,-10140.821405,0.000000
6825.100356,-1702.473667,-10140.821405,1072.533697
6825.100680,-2516.700203,-9770.718434,2528.115143
6825.101004,-2516.700203,-8512.368333,2681.334243
6825.101329,-3108.864956,-9252.574275,2145.067394
6825.101653,-3627.009116,-9770.718434,76.609550
6825.101977,-3108.864956,-8438.347739,-1685.410096
6825.102301,-4367.215058,-7994.224174,-1455.581446
6825.102625,-4589.276840,-9252.574275,-842.705048
6825.102950,-3775.050304,-8808.450710,-229.828649
6825.103274,-2960.823768,-8956.491898,-306.438199
6825.103598,-4071.132681,-8956.491898,1532.190996
6825.103922,-2516.700203,-8956.491898,1378.971896
6825.104246,-1850.514855,-8216.285956,0.000000
6825.104571,-2664.741391,-10066.800811,1991.848295
6825.104895,-3330.926739,-9474.636058,2068.457845
6825.105219,-3330.926739,-7624.121203,1838.629195
6825.105543,-3923.091493,-9030.512492,1072.533697
6825.105867,-3849.070898,-9178.553681,-383.047749
6825.106192,-2516.700203,-8808.450710,-1991.848295
6825.106516,-3552.988522,-8660.409521,-1378.971896
6825.106840,-3849.070898,-8808.450710,1149.143247
6825.107164,-1776.494261,-8512.368333,536.266849
6825.107488,-1628.453072,-8586.388927,306.438199
6825.107813,-1998.556043,-9548.656652,306.438199
6825.108137,-2220.617826,-10214.842000,766.095498
6825.108461,-1998.556043,-9622.677246,919.314598
6825.108785,-1554.432478,-10510.924376,1762.019645
6825.109109,-1554.432478,-10510.924376,842.705048
6825.109433,-3627.009116,-8068.244768,2145.067394
6825.109758,-4367.215058,-9030.512492,612.876398
6825.110082,-3849.070898,-9326.594869,-229.828649
6825.110406,-3330.926739,-8142.265362,-1608.800546
6825.110730,-4293.194464,-8586.388927,-1149.143247
6825.111054,-3849.070898,-8364.327145,842.705048
6825.111379,-2590.720797,-7846.182985,612.876398
6825.111703,-1998.556043,-8512.368333,0.000000
6825.112027,-2886.803174,-9548.656652,76.609550
6825.112351,-2368.659014,-9918.759623,536.266849
6825.112675,-1628.453072,-8956.491898,689.485948
6825.113000,-2146.597232,-10510.924376,1455.581446
6825.113324,-3034.844362,-9770.718434,1532.190996
6825.113648,-2886.803174,-9400.615463,1838.629195
6825.113972,-3552.988522,-9104.533087,1378.971896
6825.114296,-4737.318029,-8438.347739,1302.362347
6825.114621,-5107.421000,-8882.471304,-153.219100
6825.114945,-5033.400406,-8364.327145,-1455.581446
6825.115269,-4737.318029,-8364.327145,-842.705048
6825.115593,-4663.297435,-7328.038826,-1072.533697
6825.115917,-4663.297435,-7698.141797,-306.438199
6825.116242,-4959.379811,-8068.244768,0.000000
6825.116566,-4071.132681,-8956.491898,-536.266849
6825.116890,-2368.659014,-9252.574275,-1225.752797
6825.117214,-2664.741391,-9548.656652,153.219100
6825.117538,-3034.844362,-10436.903782,2145.067394
6825.117863,-2590.720797,-9696.697840,2298.286494
6825.118187,-2146.597232,-9622.677246,1838.629195
6825.118511,-3701.029710,-9918.759623,1225.752797
6825.118835,-3923.091493,-8956.491898,919.314598
6825.119159,-3701.029710,-9252.574275,-459.657299
6825.119484,-3478.967927,-8586.388927,-842.705048
6825.119808,-3404.947333,-8956.491898,-689.485948
6825.120132,-3997.112087,-7179.997637,-383.047749
6825.120456,-4737.318029,-8068.244768,995.924147
6825.120780,-4885.359217,-8290.306550,229.828649
6825.121105,-3108.864956,-9178.553681,-919.314598
6825.121429,-3034.844362,-9252.574275,-536.266849
6825.121753,-3108.864956,-9770.718434,1608.800546
6825.122077,-2886.803174,-9326.594869,2221.676944
6825.122401,-1850.514855,-9252.574275,1762.019645
6825.122726,-2146.597232,-10807.006753,1685.410096
6825.123050,-1850.514855,-9400.615463,995.924147
6825.123374,-1480.411884,-9030.512492,689.485948
6825.123698,-2294.638420,-9104.533087,1225.752797
6825.124022,-2220.617826,-9030.512492,995.924147
6825.124347,-2368.659014,-8438.347739,-306.438199
6825.124671,-3849.070898,-8438.347739,919.314598
6825.124995,-4441.235652,-9252.574275,536.266849
6825.125319,-2664.741391,-8882.471304,-1072.533697
6825.125643,-2664.741391,-8142.265362,-1149.143247
6825.125968,-3923.091493,-9992.780217,536.266849
6825.126292,-3775.050304,-8956.491898,1685.410096
6825.126616,-2664.741391,-8438.347739,1149.143247
6825.126940,-2812.782580,-9252.574275,842.705048
6825.127264,-3256.906145,-9400.615463,995.924147
6825.127589,-3034.844362,-8438.347739,306.438199
6825.127913,-3108.864956,-9474.636058,689.485948
6825.128237,-3256.906145,-9400.615463,766.095498
6825.128561,-2812.782580,-8290.306550,-76.609550
6825.128885,-3404.947333,-8808.450710,842.705048
6825.129210,-4219.173869,-9326.594869,1302.362347
6825.129534,-2664.741391,-9400.615463,0.000000
6825.129858,-2220.617826,-9030.512492,-766.095498
6825.130182,-2812.782580,-9400.615463,536.266849
6825.130506,-3330.926739,-8660.409521,1455.581446
6825.130830,-2812.782580,-8216.285956,995.924147
6825.131155,-3478.967927,-8882.471304,995.924147
6825.131479,-3775.050304,-9178.553681,76.609550
6825.131803,-3256.906145,-8438.347739,-612.876398
6825.132127,-3997.112087,-8068.244768,76.609550
6825.132451,-3997.112087,-9400.615463,1225.752797
6825.132776,-3330.926739,-8216.285956,536.266849
6825.133100,-4293.194464,-8734.430116,536.266849
6825.133424,-5699.585753,-9622.677246,842.705048
6825.133748,-4811.338623,-9474.636058,459.657299
6825.134072,-4071.132681,-8808.450710,-919.314598
6825.134397,-4293.194464,-9104.533087,153.219100
6825.134721,-4219.173869,-8660.409521,1302.362347
6825.135045,-3627.009116,-7031.956449,1149.143247
6825.135369,-4441.235652,-7920.203579,1455.581446
6825.135693,-4293.194464,-7772.162391,76.609550
6825.136018,-3627.009116,-7994.224174,-766.095498
6825.136342,-4071.132681,-8438.347739,-919.314598
6825.136666,-4071.132681,-8882.471304,689.485948
6825.136990,-3256.906145,-8956.491898,229.828649
6825.137314,-3108.864956,-8956.491898,0.000000
6825.137639,-3997.112087,-9474.636058,612.876398
6825.137963,-2886.803174,-10955.047942,689.485948
6825.138287,-2072.576638,-10288.862594,229.828649
6825.138611,-1776.494261,-10140.821405,919.314598
6825.138935,-2146.597232,-9326.594869,1608.800546
6825.139260,-2146.597232,-8512.368333,1838.629195
6825.139584,-2664.741391,-9252.574275,1685.410096
6825.139908,-3997.112087,-8956.491898,229.828649
6825.140232,-2368.659014,-8438.347739,-1608.800546
6825.140556,-2960.823768,-7476.080014,-842.705048
6825.140881,-3330.926739,-8586.388927,383.047749
6825.141205,-2738.761985,-9030.512492,76.609550
6825.141529,-2442.679609,-8956.491898,76.609550
6825.141853,-2886.803174,-9548.656652,766.095498
6825.142177,-2220.617826,-9178.553681,1455.581446
6825.142502,-1332.370696,-9622.677246,0.000000
6825.142826,-2442.679609,-10214.842000,919.314598
6825.143150,-2886.803174,-10510.924376,1225.752797
6825.143474,-2442.679609,-9252.574275,536.266849
6825.143798,-3256.906145,-8956.491898,766.095498
6825.144123,-4145.153275,-9326.594869,842.705048
6825.144447,-3701.029710,-8364.327145,383.047749
6825.144771,-3552.988522,-8512.368333,0.000000
6825.145095,-4515.256246,-8512.368333,306.438199
6825.145419,-4589.276840,-7772.162391,842.705048
6825.145744,-4737.318029,-7179.997637,229.828649
6825.146068,-5477.523971,-7920.203579,536.266849
6825.146392,-4811.338623,-8512.368333,0.000000
6825.146716,-4663.297435,-7550.100608,0.000000
6825.147040,-5625.565159,-8808.450710,229.828649
6825.147365,-6217.729913,-9104.533087,1455.581446
6825.147689,-5033.400406,-8586.388927,1378.971896
6825.148013,-4885.359217,-8068.244768,919.314598
6825.148337,-6291.750507,-9030.512492,1302.362347
6825.148661,-6809.894666,-7994.224174,1302.362347
6825.148986,-5625.565159,-7328.038826,-229.828649
6825.149310,-5403.503377,-8290.306550,-842.705048
6825.149634,-5625.565159,-7550.100608,-229.828649
6825.149958,-5477.523971,-7254.018232,0.000000
6825.150282,-5921.647536,-7476.080014,306.438199
6825.150607,-5403.503377,-8734.430116,383.047749
6825.150931,-4145.153275,-8216.285956,-306.438199
6825.151255,-4071.132681,-8734.430116,-306.438199
6825.151579,-4219.173869,-9548.656652,1532.190996
6825.151903,-3701.029710,-8512.368333,2145.067394
6825.152227,-2960.823768,-8660.409521,1225.752797
6825.152552,-3997.112087,-9326.594869,1762.019645
6825.152876,-4367.215058,-9252.574275,1378.971896
6825.153200,-4145.153275,-8364.327145,-689.485948
6825.153524,-3849.070898,-8586.388927,0.000000
6825.153848,-3182.885551,-8734.430116,0.000000
6825.154173,-3627.009116,-7031.956449,76.609550
6825.154497,-4737.318029,-8956.491898,766.095498
6825.154821,-4737.318029,-9104.533087,536.266849
6825.155145,-2960.823768,-9474.636058,-919.314598
6825.155469,-2368.659014,-9030.512492,-1532.190996
6825.155794,-3034.844362,-9622.677246,1149.143247
6825.156118,-3034.844362,-8660.409521,1991.848295
6825.156442,-1776.494261,-8734.430116,766.095498
6825.156766,-2516.700203,-9622.677246,1149.143247
6825.157090,-3478.967927,-9104.533087,842.705048
6825.157415,-3034.844362,-8882.471304,229.828649
6825.157739,-3182.885551,-9474.636058,-536.266849
6825.158063,-2812.782580,-9030.512492,0.000000
6825.158387,-2220.617826,-8956.491898,-536.266849
6825.158711,-3404.947333,-8882.471304,306.438199
6825.159036,-4219.173869,-9474.636058,1991.848295
6825.159360,-2442.679609,-9548.656652,0.000000
6825.159684,-1850.514855,-9178.553681,-612.876398
6825.160008,-3108.864956,-9548.656652,1302.362347
6825.160332,-3701.029710,-8734.430116,1762.019645
6825.160657,-2960.823768,-8364.327145,1072.533697
6825.160981,-4071.132681,-8438.347739,919.314598
6825.161305,-4071.132681,-9252.574275,383.047749
6825.161629,-4515.256246,-7328.038826,-306.438199
6825.161953,-5329.482782,-8364.327145,-153.219100
6825.162278,-5033.400406,-8512.368333,0.000000
6825.162602,-4367.215058,-8290.306550,-459.657299
6825.162926,-5403.503377,-8364.327145,612.876398
6825.163250,-5699.585753,-8586.388927,1608.800546
6825.163574,-4367.215058,-8882.471304,306.438199
6825.163898,-3701.029710,-9252.574275,-766.095498
6825.164222,-4293.194464,-9178.553681,0.000000
6825.164547,-4663.297435,-8956.491898,1685.410096
6825.164871,-4663.297435,-7772.162391,2298.286494
6825.165195,-4367.215058,-8216.285956,1455.581446
6825.165519,-4885.359217,-8068.244768,76.609550
6825.165843,-5477.523971,-7698.141797,-612.876398
6825.166167,-6439.791695,-7402.059420,-459.657299
6825.166491,-6439.791695,-8364.327145,-383.047749
6825.166815,-5403.503377,-7402.059420,-995.924147
6825.167140,-4959.379811,-8068.244768,-1072.533697
6825.167464,-6069.688724,-8290.306550,229.828649
6825.167788,-5625.565159,-8586.388927,689.485948
6825.168112,-3478.967927,-9548.656652,-1149.143247
6825.168436,-3108.864956,-9548.656652,0.000000
6825.168760,-3478.967927,-9622.677246,2068.457845
6825.169084,-3330.926739,-8142.265362,2451.505594
6825.169408,-3404.947333,-9030.512492,2374.896044
6825.169732,-4071.132681,-9178.553681,1072.533697
6825.170057,-3627.009116,-8882.471304,-383.047749
6825.170381,-4145.153275,-8142.265362,-306.438199
6825.170705,-4515.256246,-8882.471304,1149.143247
6825.171029,-3478.967927,-8068.244768,76.609550
6825.171353,-3478.967927,-8364.327145,-306.438199
6825.171677,-4515.256246,-9548.656652,459.657299
6825.172001,-3627.009116,-8956.491898,383.047749
6825.172325,-2664.741391,-8882.471304,-153.219100
6825.172650,-3034.844362,-8734.430116,995.924147
6825.172974,-2294.638420,-9622.677246,1608.800546
6825.173298,-2738.761985,-8364.327145,1072.533697
6825.173622,-3478.967927,-8808.450710,1762.019645
6825.173946,-3923.091493,-9474.636058,766.095498
6825.174270,-3034.844362,-8808.450710,-459.657299
6825.174594,-3775.050304,-9104.533087,-766.095498
6825.174918,-4145.153275,-8142.265362,842.705048
6825.175243,-3182.885551,-8660.409521,306.438199
6825.175567,-3256.906145,-8586.388927,-306.438199
6825.175891,-4663.297435,-9252.574275,842.705048
6825.176215,-3849.070898,-9474.636058,536.266849
6825.176539,-2072.576638,-8512.368333,0.000000
6825.176863,-2886.803174,-10066.800811,536.266849
6825.177187,-4145.153275,-8882.471304,1455.581446
6825.177511,-3627.009116,-7328.038826,1455.581446
6825.177836,-3404.947333,-7994.224174,1072.533697
6825.178160,-3997.112087,-9104.533087,536.266849
6825.178484,-4737.318029,-7920.203579,-612.876398
6825.178808,-5329.482782,-7920.203579,-536.266849
6825.179132,-5551.544565,-9104.533087,1149.143247
6825.179456,-4145.153275,-7698.141797,0.000000
6825.179780,-3701.029710,-8438.347739,-842.705048
6825.180104,-4959.379811,-9030.512492,689.485948
6825.180429,-5551.544565,-9326.594869,766.095498
6825.180753,-4515.256246,-8734.430116,-229.828649
6825.181077,-4737.318029,-9400.615463,536.266849
6825.181401,-5329.482782,-9474.636058,1225.752797
6825.181725,-4441.235652,-8216.285956,1225.752797
6825.182049,-3478.967927,-7772.162391,76.609550
6825.182373,-3775.050304,-8660.409521,459.657299
6825.182697,-5033.400406,-8882.471304,0.000000
6825.183022,-5403.503377,-7994.224174,-229.828649
6825.183346,-5033.400406,-7920.203579,612.876398
6825.183670,-3849.070898,-8216.285956,-153.219100
6825.183994,-3627.009116,-8438.347739,-995.924147
6825.184318,-5107.421000,-9104.533087,383.047749
6825.184642,-4589.276840,-8808.450710,1608.800546
6825.184966,-3404.947333,-8660.409521,153.219100
6825.185290,-4071.132681,-8882.471304,459.657299
6825.185614,-4811.338623,-9326.594869,1072.533697
6825.185939,-4071.132681,-9178.553681,229.828649
6825.186263,-3627.009116,-7698.141797,0.000000
6825.186587,-4145.153275,-8364.327145,919.314598
6825.186911,-4663.297435,-8364.327145,612.876398
6825.187235,-3775.050304,-7994.224174,-383.047749
6825.187559,-3034.844362,-8438.347739,-842.705048
6825.187883,-2146.597232,-9030.512492,-459.657299
6825.188207,-1480.411884,-8068.244768,76.609550
6825.188532,-2590.720797,-8956.491898,1455.581446
6825.188856,-2590.720797,-10362.883188,1762.019645
6825.189180,-1998.556043,-9474.636058,1915.238745
6825.189504,-2072.576638,-9474.636058,153.219100
6825.189828,-3256.906145,-9548.656652,2145.067394
6825.190152,-3034.844362,-9770.718434,1149.143247
6825.190476,-2738.761985,-8438.347739,0.000000
6825.190800,-3923.091493,-8882.471304,153.219100
6825.191125,-4737.318029,-8660.409521,-306.438199
6825.191449,-4145.153275,-7994.224174,-1149.143247
6825.191773,-4737.318029,-7624.121203,0.000000
6825.192097,-3701.029710,-8290.306550,229.828649
6825.192421,-3923.091493,-7624.121203,919.314598
6825.192745,-4515.256246,-7698.141797,1915.238745
6825.193069,-5329.482782,-9252.574275,1685.410096
6825.193393,-4071.132681,-9326.594869,-306.438199
6825.193718,-3552.988522,-8956.491898,-1225.752797
6825.194042,-5255.462188,-9104.533087,536.266849
6825.194366,-4811.338623,-9844.739029,766.095498
6825.194690,-4219.173869,-8586.388927,229.828649
6825.195014,-3182.885551,-8882.471304,229.828649
6825.195338,-3108.864956,-9400.615463,0.000000
6825.195662,-3330.926739,-7772.162391,0.000000
6825.195986,-4737.318029,-7920.203579,153.219100
6825.196311,-4441.235652,-8512.368333,1532.190996
6825.196635,-2960.823768,-7920.203579,76.609550
6825.196959,-3775.050304,-8216.285956,-536.266849
6825.197283,-6143.709319,-8956.491898,1149.143247
6825.197607,-5921.647536,-9474.636058,766.095498
6825.197931,-5033.400406,-8364.327145,0.000000
6825.198255,-4959.379811,-8364.327145,0.000000
6825.198579,-5551.544565,-8660.409521,1302.362347
6825.198904,-5625.565159,-7254.018232,0.000000
6825.199228,-5255.462188,-8734.430116,459.657299
6825.199552,-4293.194464,-8364.327145,-536.266849
6825.199876,-3627.009116,-8364.327145,-612.876398
6825.200200,-5255.462188,-8068.244768,383.047749
6825.200524,-5255.462188,-9030.512492,1532.190996
6825.200848,-3330.926739,-8660.409521,153.219100
6825.201172,-2368.659014,-8956.491898,-383.047749
6825.201496,-4885.359217,-9030.512492,689.485948
6825.201821,-4515.256246,-9252.574275,1532.190996
6825.202145,-3330.926739,-8808.450710,459.657299
6825.202469,-3108.864956,-9400.615463,153.219100
6825.202793,-3997.112087,-9400.615463,153.219100
6825.203117,-4367.215058,-7550.100608,1149.143247
6825.203441,-4737.318029,-8882.471304,1302.362347
6825.203765,-4219.173869,-8438.347739,919.314598
6825.204089,-3552.988522,-7624.121203,-766.095498
6825.204414,-4515.256246,-8660.409521,-536.266849
6825.204738,-4589.276840,-9104.533087,1072.533697
6825.205062,-3182.885551,-8808.450710,306.438199
6825.205386,-2590.720797,-8290.306550,-689.485948
6825.205710,-3478.967927,-8734.430116,1378.971896
6825.206034,-3849.070898,-9918.759623,1608.800546
6825.206358,-3552.988522,-8586.388927,919.314598
6825.206682,-2516.700203,-9844.739029,612.876398
6825.207007,-3552.988522,-9178.553681,1225.752797
6825.207331,-3552.988522,-8142.265362,1685.410096
6825.207655,-4293.194464,-8216.285956,1302.362347
6825.207979,-4441.235652,-8808.450710,766.095498
6825.208303,-3627.009116,-8882.471304,-1685.410096
6825.208627,-4811.338623,-7402.059420,-1532.190996
6825.208951,-5551.544565,-8438.347739,536.266849
6825.209275,-4515.256246,-8142.265362,76.609550
6825.209600,-3404.947333,-9030.512492,-306.438199
6825.209924,-4515.256246,-9104.533087,1225.752797
6825.210248,-3552.988522,-9400.615463,1225.752797
6825.210572,-3256.906145,-8808.450710,1225.752797
6825.210896,-3627.009116,-9770.718434,919.314598
6825.211220,-3775.050304,-9844.739029,1762.019645
6825.211544,-3108.864956,-8956.491898,919.314598
6825.211868,-3404.947333,-8586.388927,1532.190996
6825.212193,-4737.318029,-9030.512492,1532.190996
6825.212517,-4515.256246,-8068.244768,0.000000
6825.212841,-3997.112087,-7624.121203,-1532.190996
6825.213165,-5181.441594,-8290.306550,229.828649
6825.213489,-5477.523971,-7179.997637,0.000000
6825.213813,-4737.318029,-7476.080014,-536.266849
6825.214137,-5699.585753,-8068.244768,-689.485948
6825.214461,-5329.482782,-8512.368333,0.000000
6825.214786,-4219.173869,-8586.388927,-1149.143247
6825.215110,-4145.153275,-9548.656652,-306.438199
6825.215434,-3997.112087,-10066.800811,1225.752797
6825.215758,-2886.803174,-9474.636058,1378.971896
6825.216082,-3108.864956,-8882.471304,1915.238745
6825.216406,-3849.070898,-9622.677246,2374.896044
6825.216730,-3552.988522,-9326.594869,689.485948
6825.217054,-3256.906145,-8364.327145,-153.219100
6825.217378,-3923.091493,-8290.306550,766.095498
6825.217703,-3775.050304,-8364.327145,995.924147
6825.218027,-3627.009116,-7179.997637,766.095498
6825.218351,-4811.338623,-8438.347739,459.657299
6825.218675,-5477.523971,-8438.347739,0.000000
6825.218999,-4737.318029,-8216.285956,-995.924147
6825.219323,-4515.256246,-8512.368333,-459.657299
6825.219647,-5107.421000,-8882.471304,229.828649
6825.219971,-3997.112087,-8438.347739,1072.533697
6825.220296,-3478.967927,-7846.182985,1072.533697
6825.220620,-4589.276840,-8586.388927,1378.971896
6825.220944,-4441.235652,-9326.594869,1072.533697
6825.221268,-3849.070898,-8734.430116,612.876398
6825.221592,-3923.091493,-9252.574275,229.828649
6825.221916,-3627.009116,-8882.471304,995.924147
6825.222240,-3627.009116,-7550.100608,536.266849
6825.222564,-4737.318029,-8512.368333,1225.752797
6825.222889,-4663.297435,-9104.533087,919.314598
6825.223213,-3330.926739,-9178.553681,-383.047749
6825.223537,-2886.803174,-8808.450710,-689.485948
6825.223861,-3552.988522,-9474.636058,1302.362347
6825.224185,-3182.885551,-8660.409521,1532.190996
6825.224509,-2516.700203,-8438.347739,1915.238745
6825.224833,-3552.988522,-8290.306550,1378.971896
6825.225157,-3627.009116,-8660.409521,459.657299
6825.225482,-3627.009116,-7476.080014,-689.485948
6825.225806,-4737.318029,-8882.471304,-536.266849
6825.226130,-4441.235652,-9178.553681,0.000000
6825.226454,-4145.153275,-8364.327145,-536.266849
6825.226778,-4811.338623,-9252.574275,76.609550
6825.227102,-4959.379811,-9696.697840,1072.533697
6825.227426,-3256.906145,-9622.677246,689.485948
6825.227750,-2516.700203,-8364.327145,-459.657299
6825.228075,-3552.988522,-9844.739029,1072.533697
6825.228399,-3552.988522,-9252.574275,1991.848295
6825.228723,-3478.967927,-7550.100608,1838.629195
6825.229047,-3552.988522,-8956.491898,1302.362347
6825.229371,-3478.967927,-8586.388927,612.876398
6825.229695,-3701.029710,-8216.285956,-766.095498
6825.230019,-4441.235652,-8956.491898,-459.657299
6825.230343,-4737.318029,-8660.409521,459.657299
6825.230668,-3627.009116,-8290.306550,0.000000
6825.230992,-4663.297435,-8290.306550,536.266849
6825.231316,-5255.462188,-9400.615463,1072.533697
6825.231640,-4589.276840,-9696.697840,0.000000
6825.231964,-3552.988522,-8882.471304,-1302.362347
6825.232288,-4071.132681,-9178.553681,383.047749
6825.232612,-4737.318029,-8956.491898,2145.067394
6825.232936,-4441.235652,-7698.141797,2451.505594
6825.233261,-3701.029710,-8438.347739,229.828649
6825.233585,-4293.194464,-8438.347739,0.000000
6825.233909,-4663.297435,-7846.182985,-536.266849
6825.234233,-4663.297435,-7994.224174,-153.219100
6825.234557,-4737.318029,-8586.388927,459.657299
6825.234881,-3923.091493,-8142.265362,0.000000
6825.235205,-3478.967927,-8734.430116,-612.876398
6825.235529,-4663.297435,-8956.491898,842.705048
6825.235853,-3701.029710,-10214.842000,1302.362347
6825.236178,-2146.597232,-9474.636058,0.000000
6825.236502,-1924.535449,-10140.821405,766.095498
6825.236826,-2294.638420,-9622.677246,1608.800546
6825.237150,-1702.473667,-8216.285956,1378.971896
6825.237474,-1776.494261,-9326.594869,689.485948
6825.237798,-2072.576638,-9400.615463,842.705048
6825.238122,-1924.535449,-8808.450710,0.000000
6825.238446,-2220.617826,-8290.306550,-306.438199
6825.238771,-2664.741391,-8882.471304,995.924147
6825.239095,-888.247130,-9548.656652,153.219100
6825.239419,-1480.411884,-8364.327145,0.000000
6825.239743,-3256.906145,-9474.636058,1991.848295
6825.240067,-3404.947333,-9474.636058,1838.629195
6825.240391,-1776.494261,-9400.615463,153.219100
6825.240715,-2220.617826,-10732.986159,-306.438199
6825.241039,-2516.700203,-9696.697840,459.657299
6825.241364,-2146.597232,-9400.615463,1608.800546
6825.241688,-3034.844362,-8808.450710,1532.190996
6825.242012,-3404.947333,-9030.512492,1149.143247
6825.242336,-3034.844362,-8882.471304,-842.705048
6825.242660,-2886.803174,-8586.388927,-842.705048
6825.242984,-3627.009116,-8660.409521,153.219100
6825.243308,-2812.782580,-8364.327145,459.657299
6825.243632,-2442.679609,-8290.306550,459.657299
6825.243957,-4441.235652,-8660.409521,689.485948
6825.244281,-4293.194464,-9252.574275,1149.143247
6825.244605,-3552.988522,-9252.574275,76.609550
6825.244929,-3775.050304,-9844.739029,-229.828649
6825.245253,-3552.988522,-9992.780217,1072.533697
6825.245577,-3923.091493,-8438.347739,1685.410096
6825.245901,-4737.318029,-8216.285956,2528.115143
6825.246225,-5551.544565,-8956.491898,1838.629195
6825.246550,-3997.112087,-9474.636058,-536.266849
6825.246874,-4145.153275,-8068.244768,-1378.971896
6825.247198,-4589.276840,-8290.306550,-306.438199
6825.247522,-4219.173869,-8068.244768,459.657299
6825.247846,-3478.967927,-7698.141797,76.609550
6825.248170,-3775.050304,-9104.533087,153.219100
6825.248494,-3849.070898,-8438.347739,995.924147
6825.248818,-2960.823768,-8808.450710,0.000000
6825.249143,-3034.844362,-9030.512492,1072.533697
6825.249467,-3923.091493,-9400.615463,1685.410096
6825.249791,-3330.926739,-8956.491898,1378.971896
6825.250115,-3775.050304,-8956.491898,1378.971896
6825.250439,-5329.482782,-8956.491898,1685.410096
6825.250763,-4589.276840,-9104.533087,766.095498
6825.251087,-3849.070898,-8142.265362,-1608.800546
6825.251411,-4885.359217,-8142.265362,-842.705048
6825.251735,-4515.256246,-8364.327145,-306.438199
6825.252060,-3330.926739,-7994.224174,-306.438199
6825.252384,-3552.988522,-8734.430116,-383.047749
6825.252708,-3404.947333,-9548.656652,76.609550
6825.253032,-2368.659014,-9770.718434,76.609550
6825.253356,-1850.514855,-9326.594869,689.485948
6825.253680,-1924.535449,-10140.821405,1838.629195
6825.254004,-962.267725,-10436.903782,1685.410096
6825.254328,-1258.350101,-9400.615463,1838.629195
6825.254653,-2146.597232,-10140.821405,2145.067394
6825.254977,-2516.700203,-9844.739029,1302.362347
6825.255301,-2368.659014,-8216.285956,153.219100
6825.255625,-2220.617826,-9252.574275,-306.438199
6825.255949,-2886.803174,-8660.409521,-383.047749
6825.256273,-3256.906145,-8808.450710,306.438199
6825.256597,-3404.947333,-8438.347739,0.000000
6825.256921,-3034.844362,-9326.594869,766.095498
6825.257246,-2590.720797,-9178.553681,0.000000
6825.257570,-2368.659014,-9548.656652,0.000000
6825.257894,-2738.761985,-9844.739029,842.705048
6825.258218,-2738.761985,-9844.739029,1532.190996
6825.258542,-1554.432478,-8808.450710,1302.362347
6825.258866,-2294.638420,-9178.553681,1455.581446
6825.259190,-3108.864956,-9474.636058,1455.581446
6825.259514,-2664.741391,-9252.574275,536.266849
6825.259839,-2738.761985,-8808.450710,-306.438199
6825.260163,-2960.823768,-9104.533087,0.000000
6825.260487,-2960.823768,-7772.162391,536.266849
6825.260811,-3849.070898,-8142.265362,0.000000
6825.261135,-5181.441594,-9474.636058,766.095498
6825.261459,-4145.153275,-9474.636058,-766.095498
6825.261783,-3034.844362,-8956.491898,-1608.800546
6825.262107,-4441.235652,-8660.409521,536.266849
6825.262432,-4441.235652,-8956.491898,2451.505594
6825.262756,-3701.029710,-7846.182985,1455.581446
6825.263080,-4367.215058,-8660.409521,612.876398
6825.263404,-5181.441594,-8734.430116,689.485948
6825.263728,-4441.235652,-8068.244768,0.000000
6825.264052,-4515.256246,-8290.306550,-306.438199
6825.264376,-5329.482782,-8808.450710,306.438199
6825.264700,-3923.091493,-8364.327145,229.828649
6825.265025,-3552.988522,-7920.203579,-383.047749
6825.265349,-4441.235652,-9104.533087,766.095498
6825.265673,-4293.194464,-8956.491898,0.000000
6825.265997,-3034.844362,-8882.471304,-612.876398
6825.266321,-2886.803174,-8956.491898,0.000000
6825.266645,-2886.803174,-9622.677246,1302.362347
6825.266969,-3701.029710,-8290.306550,1225.752797
6825.267294,-4515.256246,-9252.574275,995.924147
6825.267618,-3404.947333,-9548.656652,1225.752797
6825.267942,-2368.659014,-8586.388927,-995.924147
6825.268266,-3182.885551,-8808.450710,-689.485948
6825.268590,-4589.276840,-9918.759623,842.705048
6825.268914,-3997.112087,-9104.533087,1225.752797
6825.269239,-2738.761985,-9178.553681,766.095498
6825.269563,-3108.864956,-8956.491898,766.095498
6825.269887,-2738.761985,-9326.594869,612.876398
6825.270211,-2590.720797,-8956.491898,229.828649
6825.270535,-1850.514855,-9400.615463,0.000000
6825.270859,-1776.494261,-9400.615463,383.047749
6825.271184,-2664.741391,-9030.512492,1455.581446
6825.271508,-3701.029710,-8882.471304,2374.896044
6825.271832,-3108.864956,-8216.285956,1225.752797
6825.272156,-1776.494261,-8586.388927,-1149.143247
6825.272480,-2886.803174,-7772.162391,153.219100
6825.272804,-4367.215058,-9918.759623,1532.190996
6825.273129,-3849.070898,-8438.347739,1302.362347
6825.273453,-2664.741391,-8290.306550,-153.219100
6825.273777,-3997.112087,-9252.574275,-306.438199
6825.274101,-4293.194464,-9696.697840,-459.657299
6825.274425,-3034.844362,-9474.636058,-919.314598
6825.274749,-1850.514855,-9992.780217,-153.219100
6825.275074,-1406.391290,-10066.800811,1455.581446
6825.275398,-1628.453072,-8808.450710,2145.067394
6825.275722,-2516.700203,-9252.574275,2757.943793
6825.276046,-2738.761985,-9696.697840,2145.067394
6825.276370,-2146.597232,-8660.409521,153.219100
6825.276694,-3256.906145,-7994.224174,-383.047749
6825.277019,-4811.338623,-7772.162391,459.657299
6825.277343,-5107.421000,-7846.182985,1302.362347
6825.277667,-4219.173869,-7179.997637,-229.828649
6825.277991,-4959.379811,-8290.306550,-995.924147
6825.278315,-6143.709319,-8660.409521,-1149.143247
6825.278640,-4885.359217,-8882.471304,-1455.581446
6825.278964,-4589.276840,-9104.533087,-536.266849
6825.279288,-3849.070898,-9326.594869,229.828649
6825.279612,-3034.844362,-9474.636058,1762.019645
6825.279936,-3627.009116,-8438.347739,2298.286494
6825.280260,-4071.132681,-9326.594869,2681.334243
6825.280585,-3182.885551,-9104.533087,842.705048
6825.280909,-2886.803174,-8660.409521,-536.266849
6825.281233,-4811.338623,-8882.471304,-153.219100
6825.281557,-5033.400406,-8808.450710,536.266849
6825.281881,-3775.050304,-8438.347739,-995.924147
6825.282205,-3701.029710,-9030.512492,-995.924147
6825.282530,-4071.132681,-9844.739029,-306.438199
6825.282854,-2960.823768,-8808.450710,229.828649
6825.283178,-1924.535449,-9622.677246,536.266849
6825.283502,-1924.535449,-10066.800811,1455.581446
6825.283826,-2812.782580,-9326.594869,2068.457845
6825.284150,-3552.988522,-7698.141797,1225.752797
6825.284475,-4441.235652,-8956.491898,1532.190996
6825.284799,-3330.926739,-9104.533087,-383.047749
6825.285123,-2146.597232,-8290.306550,-1991.848295
6825.285447,-3701.029710,-8290.306550,-842.705048
6825.285771,-5033.400406,-9178.553681,1225.752797
6825.286095,-3478.967927,-8438.347739,842.705048
6825.286420,-2368.659014,-9030.512492,-229.828649
6825.286744,-2442.679609,-9844.739029,-612.876398
6825.287068,-2590.720797,-9992.780217,536.266849
6825.287392,-2220.617826,-9326.594869,1149.143247
6825.287716,-1776.494261,-10288.862594,1915.238745
6825.288040,-962.267725,-9992.780217,2374.896044
6825.288365,-1924.535449,-8142.265362,1455.581446
6825.288689,-2886.803174,-9104.533087,1608.800546
6825.289013,-3182.885551,-8882.471304,0.000000
6825.289337,-1480.411884,-8956.491898,-1608.800546
6825.289661,-3034.844362,-8364.327145,-842.705048
6825.289986,-3478.967927,-9252.574275,1762.019645
6825.290310,-2812.782580,-8290.306550,1149.143247
6825.290634,-2812.782580,-9400.615463,1072.533697
6825.290958,-3256.906145,-10807.006753,306.438199
6825.291282,-3404.947333,-9474.636058,0.000000
6825.291606,-2738.761985,-8956.491898,0.000000
6825.291931,-2886.803174,-9992.780217,1302.362347
6825.292255,-2812.782580,-9474.636058,1072.533697
6825.292579,-3182.885551,-8438.347739,689.485948
6825.292903,-4589.276840,-8956.491898,1532.190996
6825.293227,-4145.153275,-8586.388927,766.095498
6825.293551,-3849.070898,-7550.100608,-536.266849
6825.293876,-4219.173869,-8512.368333,-1455.581446
6825.294200,-4737.318029,-8882.471304,76.609550
6825.294524,-3775.050304,-8216.285956,229.828649
6825.294848,-3701.029710,-7994.224174,766.095498
6825.295172,-4293.194464,-9770.718434,1532.190996
6825.295496,-3330.926739,-9918.759623,76.609550
6825.295821,-2738.761985,-9400.615463,-995.924147
6825.296145,-2886.803174,-10066.800811,842.705048
6825.296469,-2886.803174,-9622.677246,1915.238745
6825.296793,-2812.782580,-8364.327145,1608.800546
6825.297117,-3627.009116,-8808.450710,1455.581446
6825.297441,-4737.318029,-9030.512492,766.095498
6825.297766,-3775.050304,-8808.450710,-612.876398
6825.298090,-4589.276840,-8068.244768,-612.876398
6825.298414,-3923.091493,-7994.224174,-689.485948
6825.298738,-3627.009116,-7772.162391,-229.828649
6825.299062,-4589.276840,-8142.265362,76.609550
6825.299386,-5033.400406,-9400.615463,76.609550
6825.299711,-3997.112087,-9622.677246,-536.266849
6825.300035,-2664.741391,-9178.553681,-1072.533697
6825.300359,-2590.720797,-9622.677246,-306.438199
6825.300683,-2812.782580,-10066.800811,2451.505594
6825.301007,-2072.576638,-9474.636058,2298.286494
6825.301331,-1702.473667,-9400.615463,1685.410096
6825.301656,-2516.700203,-9622.677246,1838.629195
6825.301980,-2516.700203,-8364.327145,612.876398
6825.302304,-2516.700203,-8808.450710,153.219100
6825.302628,-3108.864956,-9104.533087,306.438199
6825.302952,-2368.659014,-8216.285956,0.000000
6825.303277,-2664.741391,-8290.306550,-612.876398
6825.303601,-3552.988522,-9030.512492,919.314598
6825.303925,-3478.967927,-9844.739029,383.047749
6825.304249,-1850.514855,-9252.574275,-306.438199
6825.304573,-2442.679609,-9326.594869,1072.533697
6825.304897,-2886.803174,-9770.718434,1838.629195
6825.305222,-2516.700203,-8956.491898,2145.067394
6825.305546,-3034.844362,-9104.533087,1149.143247
6825.305870,-2960.823768,-9992.780217,689.485948
6825.306194,-3256.906145,-8660.409521,-229.828649
6825.306518,-3330.926739,-8068.244768,0.000000
6825.306842,-4145.153275,-8882.471304,229.828649
6825.307167,-2738.761985,-8660.409521,229.828649
6825.307491,-2368.659014,-8216.285956,-689.485948
6825.307815,-3849.070898,-8216.285956,995.924147
6825.308139,-3627.009116,-9252.574275,1302.362347
6825.308463,-2294.638420,-9178.553681,-536.266849
6825.308787,-2146.597232,-9622.677246,-459.657299
6825.309112,-2442.679609,-9696.697840,995.924147
6825.309436,-2886.803174,-8586.388927,1072.533697
6825.309760,-2664.741391,-9030.512492,1302.362347
6825.310084,-3108.864956,-9918.759623,1302.362347
6825.310408,-3330.926739,-9474.636058,229.828649
6825.310732,-3923.091493,-8364.327145,0.000000
6825.311057,-5033.400406,-8660.409521,536.266849
6825.311381,-4737.318029,-8956.491898,1072.533697
6825.311705,-4219.173869,-8290.306550,-459.657299
6825.312029,-4589.276840,-8216.285956,229.828649
6825.312353,-5773.606348,-7994.224174,766.095498
6825.312677,-4737.318029,-8660.409521,-229.828649
