#time,accel_x,accel_y,accel_z
996.280284,-2516.700203,-8734.430116,612.876398
996.280597,-2960.823768,-9400.615463,1685.410096
996.280910,-3256.906145,-8956.491898,1532.190996
996.281223,-3182.885551,-9326.594869,1149.143247
996.281536,-3108.864956,-9030.512492,1302.362347
996.281849,-3404.947333,-9474.636058,1532.190996
996.282162,-3701.029710,-8660.409521,1072.533697
996.282475,-4515.256246,-8586.388927,536.266849
996.282787,-4441.235652,-8290.306550,689.485948
996.283100,-3923.091493,-8438.347739,-153.219100
996.283413,-3330.926739,-8216.285956,-536.266849
996.283726,-4219.173869,-8438.347739,766.095498
996.284039,-3849.070898,-8512.368333,1455.581446
996.284352,-3034.844362,-9178.553681,689.485948
996.284665,-2664.741391,-8734.430116,612.876398
996.284978,-3256.906145,-9104.533087,1608.800546
996.285291,-2960.823768,-8956.491898,1302.362347
996.285604,-3034.844362,-9400.615463,1378.971896
996.285917,-3478.967927,-9252.574275,1532.190996
996.286230,-3404.947333,-8734.430116,1302.362347
996.286543,-3849.070898,-8660.409521,995.924147
996.286856,-4589.276840,-8216.285956,612.876398
996.287169,-4515.256246,-8586.388927,229.828649
996.287482,-3775.050304,-8364.327145,-612.876398
996.287795,-4219.173869,-8586.388927,766.095498
996.288107,-4515.256246,-8068.244768,1302.362347
996.288420,-2886.803174,-8956.491898,842.705048
996.288733,-2738.761985,-9252.574275,1225.752797
996.289046,-2812.782580,-9252.574275,919.314598
996.289359,-3108.864956,-9178.553681,1608.800546
996.289672,-3330.926739,-9252.574275,1455.581446
996.289985,-3108.864956,-9030.512492,1378.971896
996.290298,-3108.864956,-9400.615463,1455.581446
996.290611,-3478.967927,-8586.388927,1225.752797
996.290924,-4293.194464,-8734.430116,1378.971896
996.291237,-4589.276840,-8512.368333,459.657299
996.291550,-4071.132681,-8512.368333,-229.828649
996.291863,-3849.070898,-8290.306550,-612.876398
996.292176,-4367.215058,-8142.265362,383.047749
996.292489,-4145.153275,-8438.347739,306.438199
996.292802,-3404.947333,-9252.574275,1149.143247
996.293115,-2738.761985,-8808.450710,995.924147
996.293428,-3256.906145,-9178.553681,842.705048
996.293740,-3404.947333,-8956.491898,1225.752797
996.294053,-2960.823768,-9474.636058,1455.581446
996.294366,-2960.823768,-8956.491898,1378.971896
996.294679,-3552.988522,-9030.512492,1608.800546
996.294992,-3775.050304,-8808.450710,612.876398
996.295305,-4441.235652,-8068.244768,766.095498
996.295618,-4367.215058,-8216.285956,459.657299
996.295931,-3701.029710,-8734.430116,-153.219100
996.296244,-3775.050304,-8438.347739,229.828649
996.296557,-4515.256246,-8512.368333,689.485948
996.296870,-3849.070898,-8438.347739,689.485948
996.297183,-3108.864956,-8882.471304,536.266849
996.297496,-2812.782580,-9030.512492,995.924147
996.297809,-2960.823768,-9252.574275,1991.848295
996.298122,-3256.906145,-9252.574275,1838.629195
996.298435,-3256.906145,-8660.409521,1838.629195
996.298748,-3404.947333,-9104.533087,1762.019645
996.299061,-3330.926739,-8808.450710,1378.971896
996.299373,-4071.132681,-8734.430116,766.095498
996.299686,-4515.256246,-8290.306550,306.438199
996.299999,-4145.153275,-8660.409521,76.609550
996.300312,-3701.029710,-7994.224174,76.609550
996.300625,-4219.173869,-8734.430116,383.047749
996.300938,-4589.276840,-8216.285956,919.314598
996.301251,-3256.906145,-9030.512492,536.266849
996.301564,-2738.761985,-8734.430116,229.828649
996.301877,-3034.844362,-9400.615463,995.924147
996.302190,-3034.844362,-9252.574275,1302.362347
996.302503,-3108.864956,-9326.594869,1762.019645
996.302816,-2960.823768,-8956.491898,1072.533697
996.303129,-3701.029710,-9104.533087,1608.800546
996.303442,-3775.050304,-8660.409521,995.924147
996.303755,-4515.256246,-8512.368333,689.485948
996.304068,-4515.256246,-8438.347739,536.266849
996.304381,-4071.132681,-8364.327145,-306.438199
996.304694,-3923.091493,-7994.224174,0.000000
996.305006,-4737.318029,-8068.244768,842.705048
996.305319,-3552.988522,-8734.430116,306.438199
996.305632,-2886.803174,-9178.553681,76.609550
996.305945,-2664.741391,-8956.491898,689.485948
996.306258,-2960.823768,-9548.656652,2068.457845
996.306571,-3256.906145,-9770.718434,2374.896044
996.306884,-3330.926739,-9474.636058,2221.676944
996.307197,-3182.885551,-9104.533087,1991.848295
996.307510,-3404.947333,-8734.430116,1608.800546
996.307823,-4293.194464,-8216.285956,842.705048
996.308136,-4663.297435,-7402.059420,306.438199
996.308449,-4219.173869,-7994.224174,0.000000
996.308762,-3701.029710,-7772.162391,-153.219100
996.309075,-4071.132681,-8364.327145,459.657299
996.309388,-4663.297435,-8660.409521,1455.581446
996.309701,-3997.112087,-9178.553681,1455.581446
996.310014,-2664.741391,-9104.533087,1532.190996
996.310327,-3256.906145,-9252.574275,1838.629195
996.310639,-4219.173869,-9104.533087,1915.238745
996.310952,-3627.009116,-9622.677246,1072.533697
996.311265,-3034.844362,-8882.471304,766.095498
996.311578,-3404.947333,-9252.574275,1302.362347
996.311891,-3404.947333,-8438.347739,1685.410096
996.312204,-3627.009116,-8290.306550,1149.143247
996.312517,-3923.091493,-8290.306550,2528.115143
996.312830,-4071.132681,-8512.368333,1302.362347
996.313143,-3034.844362,-8142.265362,229.828649
996.313456,-4219.173869,-7846.182985,1378.971896
996.313769,-4145.153275,-7846.182985,1608.800546
996.314082,-2812.782580,-8956.491898,766.095498
996.314395,-3182.885551,-9252.574275,153.219100
996.314708,-3552.988522,-9252.574275,2068.457845
996.315021,-3478.967927,-9030.512492,2374.896044
996.315334,-2738.761985,-9992.780217,2298.286494
996.315647,-2812.782580,-10288.862594,1838.629195
996.315959,-3330.926739,-9844.739029,2374.896044
996.316272,-4145.153275,-8734.430116,2451.505594
996.316585,-4515.256246,-7920.203579,2451.505594
996.316898,-4071.132681,-8438.347739,1838.629195
996.317211,-3478.967927,-8216.285956,153.219100
996.317524,-3849.070898,-7624.121203,0.000000
996.317837,-4515.256246,-7698.141797,1378.971896
996.318150,-3701.029710,-8438.347739,1685.410096
996.318463,-2368.659014,-8956.491898,1991.848295
996.318776,-2886.803174,-9104.533087,2451.505594
996.319089,-3849.070898,-9696.697840,3370.820191
996.319402,-3701.029710,-9918.759623,2987.772442
996.319715,-2664.741391,-8808.450710,2451.505594
996.320028,-3701.029710,-8734.430116,2451.505594
996.320341,-4071.132681,-8660.409521,2145.067394
996.320654,-4219.173869,-8438.347739,1762.019645
996.320967,-4071.132681,-7994.224174,1072.533697
996.321280,-4367.215058,-8216.285956,995.924147
996.321592,-3701.029710,-8068.244768,1455.581446
996.321905,-3849.070898,-8734.430116,1302.362347
996.322218,-3775.050304,-8586.388927,2451.505594
996.322531,-3552.988522,-8438.347739,2145.067394
996.322844,-2442.679609,-8956.491898,1455.581446
996.323157,-3404.947333,-9992.780217,2374.896044
996.323470,-3182.885551,-8512.368333,1762.019645
996.323783,-2442.679609,-8586.388927,1149.143247
996.324096,-3330.926739,-8142.265362,1532.190996
996.324409,-3701.029710,-8438.347739,1532.190996
996.324722,-3404.947333,-8882.471304,689.485948
996.325035,-4367.215058,-7920.203579,1532.190996
996.325348,-4441.235652,-8142.265362,1455.581446
996.325661,-4515.256246,-8660.409521,1149.143247
996.325974,-3627.009116,-9252.574275,229.828649
996.326287,-3997.112087,-8808.450710,689.485948
996.326600,-3478.967927,-8882.471304,153.219100
996.326913,-2960.823768,-8142.265362,612.876398
996.327225,-2442.679609,-8660.409521,919.314598
996.327538,-3108.864956,-9696.697840,1915.238745
996.327851,-2738.761985,-9696.697840,1762.019645
996.328164,-3108.864956,-9178.553681,1838.629195
996.328477,-3775.050304,-9252.574275,2451.505594
996.328790,-3404.947333,-8808.450710,1762.019645
996.329103,-3923.091493,-7698.141797,689.485948
996.329416,-4293.194464,-7994.224174,306.438199
996.329729,-5181.441594,-8438.347739,0.000000
996.330042,-3330.926739,-8142.265362,-1378.971896
996.330355,-4071.132681,-8290.306550,-612.876398
996.330668,-4293.194464,-8512.368333,612.876398
996.330981,-3478.967927,-9918.759623,1072.533697
996.331294,-2220.617826,-9548.656652,842.705048
996.331607,-2960.823768,-9844.739029,2681.334243
996.331920,-3330.926739,-9548.656652,1991.848295
996.332233,-3108.864956,-9474.636058,1378.971896
996.332546,-2886.803174,-9326.594869,842.705048
996.332858,-3849.070898,-9474.636058,842.705048
996.333171,-3701.029710,-8512.368333,229.828649
996.333484,-4737.318029,-8586.388927,229.828649
996.333797,-5033.400406,-8586.388927,-229.828649
996.334110,-3923.091493,-8290.306550,-229.828649
996.334423,-3627.009116,-8956.491898,383.047749
996.334736,-4515.256246,-9030.512492,1072.533697
996.335049,-3627.009116,-8956.491898,1762.019645
996.335362,-2664.741391,-8586.388927,1302.362347
996.335675,-2960.823768,-8660.409521,1149.143247
996.335988,-3256.906145,-9104.533087,2451.505594
996.336301,-3330.926739,-9326.594869,1225.752797
996.336614,-3182.885551,-8808.450710,995.924147
996.336927,-4071.132681,-8660.409521,1915.238745
996.337240,-4219.173869,-8660.409521,1838.629195
996.337553,-4367.215058,-9030.512492,1685.410096
996.337866,-4737.318029,-8364.327145,1072.533697
996.338179,-4441.235652,-8216.285956,536.266849
996.338491,-3256.906145,-8068.244768,0.000000
996.338804,-3923.091493,-8290.306550,229.828649
996.339117,-3478.967927,-8438.347739,919.314598
996.339430,-2368.659014,-8956.491898,1455.581446
996.339743,-2442.679609,-8956.491898,1532.190996
996.340056,-2368.659014,-9474.636058,2374.896044
996.340369,-2590.720797,-9178.553681,2374.896044
996.340682,-2516.700203,-9400.615463,2298.286494
996.340995,-3256.906145,-8660.409521,1762.019645
996.341308,-3478.967927,-8512.368333,2221.676944
996.341621,-2960.823768,-8068.244768,919.314598
996.341934,-4071.132681,-7476.080014,459.657299
996.342247,-4959.379811,-7994.224174,153.219100
996.342560,-4811.338623,-7920.203579,-536.266849
996.342873,-4145.153275,-7920.203579,-536.266849
996.343186,-4515.256246,-8364.327145,306.438199
996.343499,-3923.091493,-9030.512492,1225.752797
996.343811,-2960.823768,-9326.594869,766.095498
996.344124,-2516.700203,-9252.574275,1455.581446
996.344437,-2516.700203,-9326.594869,1991.848295
996.344750,-2442.679609,-9548.656652,1991.848295
996.345063,-2442.679609,-9548.656652,1685.410096
996.345376,-2516.700203,-9474.636058,1225.752797
996.345689,-3108.864956,-8660.409521,1455.581446
996.346002,-4367.215058,-8216.285956,1149.143247
996.346315,-4441.235652,-7846.182985,459.657299
996.346628,-4663.297435,-8512.368333,306.438199
996.346941,-4515.256246,-7624.121203,-842.705048
996.347254,-5033.400406,-8290.306550,-612.876398
996.347567,-5403.503377,-7920.203579,-766.095498
996.347880,-4367.215058,-8734.430116,-1072.533697
996.348193,-3034.844362,-9178.553681,-1149.143247
996.348506,-2738.761985,-9474.636058,-229.828649
996.348819,-2590.720797,-9400.615463,153.219100
996.349132,-2368.659014,-10066.800811,919.314598
996.349444,-2294.638420,-9770.718434,689.485948
996.349757,-2368.659014,-10140.821405,919.314598
996.350070,-2886.803174,-9252.574275,536.266849
996.350383,-3849.070898,-9178.553681,459.657299
996.350696,-3478.967927,-8586.388927,0.000000
996.351009,-4145.153275,-8660.409521,-1225.752797
996.351322,-3997.112087,-7772.162391,-1455.581446
996.351635,-4811.338623,-7994.224174,-766.095498
996.351948,-4737.318029,-8142.265362,-689.485948
996.352261,-3997.112087,-8882.471304,-995.924147
996.352574,-3701.029710,-8956.491898,-919.314598
996.352887,-3701.029710,-9474.636058,383.047749
996.353200,-3256.906145,-9400.615463,383.047749
996.353513,-3034.844362,-9252.574275,306.438199
996.353826,-2590.720797,-9326.594869,612.876398
996.354139,-3701.029710,-9770.718434,459.657299
996.354452,-3627.009116,-9252.574275,0.000000
996.354765,-3849.070898,-8734.430116,306.438199
996.355077,-4219.173869,-8808.450710,459.657299
996.355390,-3552.988522,-8512.368333,536.266849
996.355703,-3923.091493,-8734.430116,153.219100
996.356016,-4145.153275,-8216.285956,0.000000
996.356329,-3256.906145,-8660.409521,76.609550
996.356642,-3330.926739,-8734.430116,0.000000
996.356955,-3034.844362,-8586.388927,0.000000
996.357268,-2886.803174,-9178.553681,1149.143247
996.357581,-3701.029710,-9326.594869,995.924147
996.357894,-3182.885551,-8734.430116,689.485948
996.358207,-3108.864956,-9400.615463,1685.410096
996.358520,-4367.215058,-8956.491898,1378.971896
996.358833,-4145.153275,-8512.368333,536.266849
996.359146,-4145.153275,-8438.347739,689.485948
996.359459,-4663.297435,-8956.491898,612.876398
996.359772,-3775.050304,-8216.285956,0.000000
996.360085,-4071.132681,-8216.285956,612.876398
996.360398,-4145.153275,-8216.285956,995.924147
996.360710,-2738.761985,-9252.574275,536.266849
996.361023,-2738.761985,-9326.594869,536.266849
996.361336,-3034.844362,-8734.430116,2068.457845
996.361649,-2960.823768,-8438.347739,2145.067394
996.361962,-2590.720797,-9474.636058,1838.629195
996.362275,-2368.659014,-8956.491898,1455.581446
996.362588,-3701.029710,-8290.306550,1455.581446
996.362901,-3478.967927,-7846.182985,1532.190996
996.363214,-4071.132681,-7624.121203,536.266849
996.363527,-4367.215058,-8364.327145,383.047749
996.363840,-4737.318029,-8290.306550,0.000000
996.364153,-4219.173869,-8216.285956,153.219100
996.364466,-4737.318029,-8068.244768,1302.362347
996.364779,-4219.173869,-8216.285956,1225.752797
996.365092,-2516.700203,-8512.368333,229.828649
996.365405,-2738.761985,-9178.553681,1072.533697
996.365718,-2664.741391,-9474.636058,1532.190996
996.366031,-2590.720797,-9400.615463,1685.410096
996.366343,-2442.679609,-8956.491898,2145.067394
996.366656,-3034.844362,-9252.574275,2221.676944
996.366969,-3404.947333,-9474.636058,1532.190996
996.367282,-4367.215058,-8586.388927,919.314598
996.367595,-4071.132681,-7476.080014,0.000000
996.367908,-4737.318029,-7846.182985,306.438199
996.368221,-4441.235652,-7846.182985,-459.657299
996.368534,-3923.091493,-8586.388927,-842.705048
996.368847,-4293.194464,-9178.553681,0.000000
996.369160,-4071.132681,-9474.636058,536.266849
996.369473,-3404.947333,-9326.594869,1225.752797
996.369786,-2812.782580,-10214.842000,2145.067394
996.370099,-2664.741391,-10288.862594,2068.457845
996.370412,-3108.864956,-9770.718434,1532.190996
996.370725,-3108.864956,-8586.388927,919.314598
996.371038,-3034.844362,-9030.512492,536.266849
996.371351,-2664.741391,-8216.285956,-536.266849
996.371664,-3627.009116,-7772.162391,-306.438199
996.371977,-4589.276840,-7994.224174,0.000000
996.372290,-4737.318029,-7920.203579,-766.095498
996.372603,-3552.988522,-8216.285956,-383.047749
996.372917,-4515.256246,-9030.512492,612.876398
996.373230,-4589.276840,-9252.574275,612.876398
996.373543,-4219.173869,-9622.677246,536.266849
996.373856,-3849.070898,-9622.677246,76.609550
996.374169,-3478.967927,-9474.636058,229.828649
996.374482,-2960.823768,-9400.615463,-153.219100
996.374795,-2294.638420,-9474.636058,153.219100
996.375108,-2294.638420,-9252.574275,842.705048
996.375421,-2442.679609,-8956.491898,306.438199
996.375734,-2886.803174,-8438.347739,1225.752797
996.376047,-3923.091493,-8216.285956,1225.752797
996.376360,-3849.070898,-8586.388927,919.314598
996.376673,-3552.988522,-7920.203579,-766.095498
996.376986,-3997.112087,-7550.100608,-919.314598
996.377299,-4811.338623,-8142.265362,-1225.752797
996.377612,-4367.215058,-8734.430116,-842.705048
996.377925,-3256.906145,-9252.574275,0.000000
996.378238,-3034.844362,-9548.656652,689.485948
996.378551,-3404.947333,-9918.759623,2068.457845
996.378864,-3627.009116,-10732.986159,2298.286494
996.379177,-3256.906145,-10066.800811,2221.676944
996.379490,-3330.926739,-9844.739029,2451.505594
996.379803,-3108.864956,-8290.306550,919.314598
996.380116,-4219.173869,-6883.915261,306.438199
996.380429,-3701.029710,-6883.915261,-766.095498
996.380743,-3552.988522,-7550.100608,-1762.019645
996.381056,-3034.844362,-6957.935855,-1225.752797
996.381369,-4219.173869,-7772.162391,536.266849
996.381682,-4219.173869,-8364.327145,1762.019645
996.381995,-3182.885551,-9030.512492,1915.238745
996.382308,-2664.741391,-9696.697840,1378.971896
996.382621,-3701.029710,-10510.924376,2298.286494
996.382934,-3478.967927,-9918.759623,1838.629195
996.383247,-3182.885551,-9474.636058,1225.752797
996.383560,-3330.926739,-8734.430116,689.485948
996.383873,-3552.988522,-8956.491898,229.828649
996.384186,-3627.009116,-8512.368333,-536.266849
996.384499,-4515.256246,-7994.224174,-229.828649
996.384812,-4367.215058,-7772.162391,536.266849
996.385125,-3923.091493,-7624.121203,1302.362347
996.385438,-3701.029710,-8586.388927,919.314598
996.385751,-4515.256246,-9104.533087,1149.143247
996.386064,-3701.029710,-8586.388927,995.924147
996.386377,-2886.803174,-7846.182985,0.000000
996.386690,-2664.741391,-8142.265362,383.047749
996.387003,-2960.823768,-9178.553681,0.000000
996.387316,-2812.782580,-9474.636058,229.828649
996.387629,-3034.844362,-9400.615463,1149.143247
996.387942,-3775.050304,-9696.697840,1838.629195
996.388255,-3404.947333,-9622.677246,1685.410096
996.388569,-3849.070898,-9178.553681,842.705048
996.388882,-4367.215058,-8438.347739,612.876398
996.389195,-4441.235652,-8290.306550,0.000000
996.389508,-4071.132681,-7772.162391,-1072.533697
996.389821,-4145.153275,-7550.100608,-1149.143247
996.390134,-4219.173869,-7550.100608,-536.266849
996.390447,-3627.009116,-8956.491898,0.000000
996.390760,-2960.823768,-9252.574275,0.000000
996.391073,-3256.906145,-9400.615463,766.095498
996.391386,-3404.947333,-9252.574275,1532.190996
996.391699,-3108.864956,-10362.883188,1915.238745
996.392012,-2960.823768,-9770.718434,1225.752797
996.392325,-2442.679609,-9622.677246,1149.143247
996.392638,-3256.906145,-8734.430116,0.000000
996.392951,-4219.173869,-8438.347739,-383.047749
996.393264,-4145.153275,-8882.471304,-612.876398
996.393577,-4219.173869,-8586.388927,-1225.752797
996.393890,-3108.864956,-8216.285956,-995.924147
996.394203,-4589.276840,-8808.450710,842.705048
996.394516,-4737.318029,-9252.574275,995.924147
996.394829,-3182.885551,-8734.430116,229.828649
996.395142,-2960.823768,-9622.677246,919.314598
996.395455,-3701.029710,-9400.615463,1225.752797
996.395768,-3478.967927,-9104.533087,153.219100
996.396081,-3108.864956,-9178.553681,0.000000
996.396394,-3256.906145,-9104.533087,-612.876398
996.396708,-3034.844362,-8808.450710,383.047749
996.397021,-3997.112087,-8882.471304,229.828649
996.397334,-4663.297435,-7994.224174,1072.533697
996.397647,-4145.153275,-9326.594869,612.876398
996.397960,-3997.112087,-8586.388927,-306.438199
996.398273,-3849.070898,-8364.327145,0.000000
996.398586,-4367.215058,-8290.306550,689.485948
996.398899,-3552.988522,-8734.430116,383.047749
996.399212,-3108.864956,-8216.285956,-766.095498
996.399525,-2960.823768,-9252.574275,689.485948
996.399838,-3034.844362,-9030.512492,612.876398
996.400151,-3330.926739,-9400.615463,1072.533697
996.400464,-3108.864956,-8660.409521,1378.971896
996.400777,-3552.988522,-9474.636058,1455.581446
996.401090,-3330.926739,-8956.491898,766.095498
996.401403,-4441.235652,-8734.430116,1225.752797
996.401716,-4293.194464,-8364.327145,612.876398
996.402029,-3775.050304,-8364.327145,-383.047749
996.402342,-3182.885551,-7846.182985,-919.314598
996.402655,-4367.215058,-8586.388927,383.047749
996.402968,-4367.215058,-8660.409521,536.266849
996.403281,-3108.864956,-9104.533087,383.047749
996.403594,-2664.741391,-8660.409521,689.485948
996.403907,-2812.782580,-9844.739029,2528.115143
996.404220,-2812.782580,-9474.636058,1149.143247
996.404534,-2886.803174,-9030.512492,1762.019645
996.404847,-3108.864956,-8956.491898,1149.143247
996.405160,-3330.926739,-8512.368333,536.266849
996.405473,-3849.070898,-8364.327145,0.000000
996.405786,-4441.235652,-8216.285956,0.000000
996.406099,-4293.194464,-8290.306550,536.266849
996.406412,-4367.215058,-8512.368333,0.000000
996.406725,-4071.132681,-8364.327145,306.438199
996.407038,-4737.318029,-8882.471304,995.924147
996.407351,-3997.112087,-9178.553681,612.876398
996.407664,-2886.803174,-8808.450710,153.219100
996.407977,-2812.782580,-9178.553681,766.095498
996.408290,-3330.926739,-8882.471304,1532.190996
996.408603,-3404.947333,-9030.512492,1149.143247
996.408916,-3330.926739,-8586.388927,1149.143247
996.409229,-3627.009116,-9252.574275,689.485948
996.409542,-3034.844362,-8734.430116,459.657299
996.409855,-3997.112087,-9030.512492,919.314598
996.410168,-4367.215058,-8512.368333,842.705048
996.410481,-4071.132681,-8364.327145,0.000000
996.410794,-3775.050304,-8512.368333,-1149.143247
996.411107,-4293.194464,-8142.265362,-459.657299
996.411420,-4219.173869,-8216.285956,-153.219100
996.411733,-3256.906145,-9030.512492,0.000000
996.412046,-3034.844362,-8734.430116,612.876398
996.412360,-3627.009116,-9548.656652,1915.238745
996.412673,-3923.091493,-9326.594869,1608.800546
996.412986,-3404.947333,-9400.615463,1072.533697
996.413299,-3478.967927,-9326.594869,459.657299
996.413612,-3923.091493,-9104.533087,459.657299
996.413925,-4071.132681,-8216.285956,0.000000
996.414238,-4663.297435,-7698.141797,153.219100
996.414551,-4145.153275,-8512.368333,612.876398
996.414864,-3849.070898,-8660.409521,-689.485948
996.415177,-3627.009116,-8660.409521,-842.705048
996.415490,-3775.050304,-8734.430116,0.000000
996.415803,-3034.844362,-8808.450710,536.266849
996.416116,-2368.659014,-8438.347739,689.485948
996.416429,-2368.659014,-8512.368333,1762.019645
996.416742,-3034.844362,-9474.636058,2145.067394
996.417055,-3108.864956,-9400.615463,1608.800546
996.417368,-2738.761985,-9030.512492,536.266849
996.417681,-3701.029710,-9030.512492,536.266849
996.417994,-4367.215058,-8734.430116,536.266849
996.418307,-4737.318029,-8882.471304,383.047749
996.418620,-4293.194464,-8364.327145,0.000000
996.418933,-4515.256246,-8660.409521,0.000000
996.419246,-3849.070898,-8364.327145,-689.485948
996.419559,-3849.070898,-8660.409521,-536.266849
996.419872,-3478.967927,-8512.368333,0.000000
996.420186,-2590.720797,-9178.553681,689.485948
996.420499,-2146.597232,-8956.491898,995.924147
996.420812,-2220.617826,-9474.636058,1991.848295
996.421125,-2146.597232,-9178.553681,1455.581446
996.421438,-2664.741391,-9474.636058,1762.019645
996.421751,-3108.864956,-9252.574275,1532.190996
996.422064,-3627.009116,-9548.656652,1149.143247
996.422377,-3923.091493,-8364.327145,459.657299
996.422690,-5255.462188,-8438.347739,459.657299
996.423003,-5551.544565,-8512.368333,0.000000
996.423316,-4663.297435,-8290.306550,-612.876398
996.423629,-3923.091493,-7920.203579,-1072.533697
996.423942,-4515.256246,-7772.162391,-842.705048
996.424255,-4441.235652,-8290.306550,0.000000
996.424568,-3923.091493,-8512.368333,536.266849
996.424881,-2738.761985,-8808.450710,1302.362347
996.425194,-2368.659014,-9474.636058,1455.581446
996.425507,-2960.823768,-9696.697840,1149.143247
996.425820,-2886.803174,-9474.636058,1838.629195
996.426133,-3256.906145,-9992.780217,1302.362347
996.426446,-3552.988522,-8956.491898,1302.362347
996.426759,-3701.029710,-8660.409521,1225.752797
996.427072,-4441.235652,-8364.327145,919.314598
996.427385,-4367.215058,-8586.388927,153.219100
996.427698,-3775.050304,-8290.306550,-612.876398
996.428011,-4293.194464,-8882.471304,306.438199
996.428325,-4663.297435,-8438.347739,1149.143247
996.428638,-3404.947333,-9252.574275,1838.629195
996.428951,-3478.967927,-8364.327145,1991.848295
996.429264,-2812.782580,-9844.739029,2221.676944
996.429577,-2812.782580,-9400.615463,2145.067394
996.429890,-2812.782580,-9400.615463,2068.457845
996.430203,-2960.823768,-8882.471304,2221.676944
996.430516,-3701.029710,-9400.615463,2374.896044
996.430829,-3478.967927,-9030.512492,1838.629195
996.431142,-3701.029710,-8882.471304,1608.800546
996.431455,-4367.215058,-8512.368333,2298.286494
996.431768,-4293.194464,-8512.368333,1302.362347
996.432081,-3627.009116,-7994.224174,919.314598
996.432394,-4293.194464,-8290.306550,1685.410096
996.432707,-3701.029710,-8512.368333,1685.410096
996.433020,-2738.761985,-8290.306550,1608.800546
996.433333,-2664.741391,-7920.203579,2298.286494
996.433646,-2960.823768,-9770.718434,2911.162892
996.433959,-2886.803174,-8956.491898,2451.505594
996.434272,-2812.782580,-9326.594869,2451.505594
996.434585,-2886.803174,-9178.553681,2451.505594
996.434898,-3182.885551,-8734.430116,2298.286494
996.435211,-3330.926739,-8660.409521,2145.067394
996.435524,-3923.091493,-8068.244768,2068.457845
996.435837,-3627.009116,-8438.347739,2221.676944
996.436151,-3330.926739,-8290.306550,1532.190996
996.436464,-3923.091493,-8586.388927,1762.019645
996.436777,-4293.194464,-8882.471304,2145.067394
996.437090,-3256.906145,-8660.409521,1685.410096
996.437403,-2886.803174,-8438.347739,1762.019645
996.437716,-3330.926739,-8882.471304,1991.848295
996.438029,-3552.988522,-8660.409521,2911.162892
996.438342,-3627.009116,-9178.553681,2068.457845
996.438655,-3478.967927,-7772.162391,1915.238745
996.438968,-3849.070898,-8586.388927,1915.238745
996.439281,-3923.091493,-8216.285956,1378.971896
996.439594,-4663.297435,-8290.306550,1455.581446
996.439907,-4737.318029,-8290.306550,1149.143247
996.440220,-4737.318029,-7772.162391,842.705048
996.440533,-3923.091493,-7846.182985,536.266849
996.440846,-4515.256246,-8290.306550,1302.362347
996.441159,-3701.029710,-8882.471304,1072.533697
996.441472,-3034.844362,-9326.594869,689.485948
996.441785,-2442.679609,-9178.553681,919.314598
996.442098,-2738.761985,-9474.636058,1532.190996
996.442411,-2516.700203,-9326.594869,2374.896044
996.442724,-2220.617826,-9474.636058,1838.629195
996.443037,-2590.720797,-9104.533087,1838.629195
996.443350,-3330.926739,-9178.553681,1915.238745
996.443663,-3404.947333,-8660.409521,919.314598
996.443977,-4589.276840,-8216.285956,612.876398
996.444290,-4663.297435,-8660.409521,383.047749
996.444603,-4293.194464,-8734.430116,-459.657299
996.444916,-3849.070898,-8734.430116,0.000000
996.445229,-4737.318029,-8290.306550,1072.533697
996.445542,-3701.029710,-8808.450710,689.485948
996.445855,-2738.761985,-9178.553681,229.828649
996.446168,-2516.700203,-9400.615463,1149.143247
996.446481,-2516.700203,-9696.697840,1915.238745
996.446794,-2368.659014,-9696.697840,1455.581446
996.447107,-2146.597232,-9474.636058,1685.410096
996.447420,-2886.803174,-9252.574275,1532.190996
996.447733,-2960.823768,-9474.636058,1072.533697
996.448046,-3701.029710,-8586.388927,536.266849
996.448359,-4515.256246,-8216.285956,766.095498
996.448672,-4589.276840,-8586.388927,229.828649
996.448985,-4589.276840,-8808.450710,-612.876398
996.449298,-4737.318029,-8882.471304,-153.219100
996.449611,-4737.318029,-8734.430116,229.828649
996.449924,-4293.194464,-8956.491898,612.876398
996.450237,-3330.926739,-8882.471304,842.705048
996.450550,-3034.844362,-8882.471304,1149.143247
996.450863,-2664.741391,-9178.553681,1455.581446
996.451176,-2960.823768,-9104.533087,1302.362347
996.451489,-3108.864956,-9178.553681,1762.019645
996.451803,-3182.885551,-9400.615463,1762.019645
996.452116,-3182.885551,-8734.430116,1072.533697
996.452429,-4293.194464,-7920.203579,1685.410096
996.452742,-5181.441594,-8438.347739,459.657299
996.453055,-4515.256246,-8290.306550,306.438199
996.453368,-3997.112087,-8586.388927,-919.314598
996.453681,-4589.276840,-8364.327145,536.266849
996.453994,-4737.318029,-9030.512492,1302.362347
996.454307,-3775.050304,-9030.512492,766.095498
996.454620,-3108.864956,-8438.347739,1072.533697
996.454933,-3478.967927,-9252.574275,2528.115143
996.455246,-2738.761985,-9474.636058,1685.410096
996.455559,-2738.761985,-8956.491898,1685.410096
996.455872,-3330.926739,-8586.388927,2451.505594
996.456185,-2738.761985,-8512.368333,1302.362347
996.456498,-2960.823768,-8882.471304,1685.410096
996.456811,-4293.194464,-7846.182985,1762.019645
996.457124,-3478.967927,-7994.224174,1149.143247
996.457437,-3404.947333,-8142.265362,766.095498
996.457750,-3849.070898,-8438.347739,2068.457845
996.458063,-3997.112087,-7994.224174,2068.457845
996.458376,-3330.926739,-8956.491898,1762.019645
996.458689,-2960.823768,-9474.636058,1685.410096
996.459002,-2886.803174,-9326.594869,1915.238745
996.459315,-2960.823768,-8882.471304,2298.286494
996.459628,-2886.803174,-9030.512492,2374.896044
996.459942,-2738.761985,-8882.471304,2298.286494
996.460255,-3701.029710,-8956.491898,1838.629195
996.460568,-3034.844362,-7994.224174,1302.362347
996.460881,-3997.112087,-8290.306550,1762.019645
996.461194,-4441.235652,-9104.533087,1838.629195
996.461507,-3997.112087,-8882.471304,1225.752797
996.461820,-3849.070898,-7772.162391,842.705048
996.462133,-3849.070898,-8216.285956,1455.581446
996.462446,-3627.009116,-8660.409521,1685.410096
996.462759,-3034.844362,-9252.574275,1302.362347
996.463072,-3034.844362,-8882.471304,1455.581446
996.463385,-3256.906145,-9548.656652,2681.334243
996.463698,-3478.967927,-9178.553681,2451.505594
996.464011,-3182.885551,-8734.430116,1915.238745
996.464324,-2812.782580,-9104.533087,1532.190996
996.464637,-3923.091493,-9474.636058,842.705048
996.464950,-4515.256246,-8142.265362,306.438199
996.465263,-4367.215058,-7698.141797,766.095498
996.465576,-4589.276840,-8660.409521,1455.581446
996.465889,-4589.276840,-8956.491898,995.924147
996.466202,-4441.235652,-9178.553681,383.047749
996.466515,-4367.215058,-8660.409521,766.095498
996.466828,-3552.988522,-8512.368333,919.314598
996.467141,-2886.803174,-8808.450710,919.314598
996.467454,-2664.741391,-9474.636058,995.924147
996.467768,-2368.659014,-8808.450710,1991.848295
996.468081,-2886.803174,-9400.615463,2221.676944
996.468394,-3034.844362,-8586.388927,2145.067394
996.468707,-3404.947333,-9474.636058,2068.457845
996.469020,-3552.988522,-9030.512492,1532.190996
996.469333,-3627.009116,-8956.491898,1072.533697
996.469646,-4663.297435,-7772.162391,919.314598
996.469959,-4885.359217,-8068.244768,383.047749
996.470272,-3552.988522,-7846.182985,-766.095498
996.470585,-4071.132681,-8512.368333,-383.047749
996.470898,-4145.153275,-7994.224174,76.609550
996.471211,-3701.029710,-8068.244768,76.609550
996.471524,-2738.761985,-8364.327145,0.000000
996.471837,-3034.844362,-9326.594869,842.705048
996.472150,-3034.844362,-9104.533087,1149.143247
996.472463,-2516.700203,-9252.574275,1302.362347
996.472776,-2368.659014,-10140.821405,1991.848295
996.473089,-3775.050304,-10732.986159,1838.629195
996.473402,-3552.988522,-9844.739029,1149.143247
996.473715,-4293.194464,-9030.512492,1072.533697
996.474028,-4293.194464,-9104.533087,1685.410096
996.474341,-4219.173869,-8364.327145,153.219100
996.474654,-3330.926739,-7920.203579,-766.095498
996.474968,-3330.926739,-8364.327145,-536.266849
996.475281,-3552.988522,-7920.203579,0.000000
996.475594,-2812.782580,-7624.121203,76.609550
996.475907,-2812.782580,-7624.121203,919.314598
996.476220,-3034.844362,-9326.594869,1991.848295
996.476533,-3627.009116,-9474.636058,1915.238745
996.476846,-3627.009116,-9030.512492,2145.067394
996.477159,-4441.235652,-9400.615463,2298.286494
996.477472,-4441.235652,-9252.574275,1225.752797
996.477785,-4737.318029,-10288.862594,766.095498
996.478098,-4959.379811,-9844.739029,459.657299
996.478411,-4515.256246,-9252.574275,536.266849
996.478724,-3627.009116,-7920.203579,76.609550
996.479037,-3478.967927,-8438.347739,1149.143247
996.479350,-3182.885551,-8216.285956,536.266849
996.479663,-2294.638420,-7550.100608,766.095498
996.479976,-1480.411884,-7624.121203,842.705048
996.480289,-2664.741391,-8512.368333,2528.115143
996.480602,-2886.803174,-8438.347739,2528.115143
996.480915,-3256.906145,-8660.409521,2298.286494
996.481228,-3404.947333,-8882.471304,2145.067394
996.481541,-4811.338623,-9474.636058,1838.629195
996.481854,-4811.338623,-9178.553681,306.438199
996.482168,-5033.400406,-8512.368333,1149.143247
996.482481,-5255.462188,-9104.533087,1302.362347
996.482794,-4663.297435,-9104.533087,383.047749
996.483107,-3478.967927,-8734.430116,0.000000
996.483420,-3775.050304,-8956.491898,842.705048
996.483733,-3404.947333,-8882.471304,1378.971896
996.484046,-2516.700203,-8290.306550,1838.629195
996.484359,-1850.514855,-7402.059420,1762.019645
996.484672,-1776.494261,-9252.574275,2681.334243
996.484985,-2442.679609,-9252.574275,2757.943793
996.485298,-3108.864956,-8734.430116,2528.115143
996.485611,-3108.864956,-8586.388927,2451.505594
996.485924,-3478.967927,-8808.450710,2145.067394
996.486237,-4293.194464,-8956.491898,1762.019645
996.486550,-5107.421000,-8438.347739,1072.533697
996.486863,-4737.318029,-9474.636058,919.314598
996.487176,-3478.967927,-8290.306550,76.609550
996.487489,-4293.194464,-8586.388927,995.924147
996.487802,-4737.318029,-8438.347739,1608.800546
996.488115,-3552.988522,-9178.553681,1762.019645
996.488428,-2368.659014,-9030.512492,1302.362347
996.488741,-2294.638420,-8956.491898,1685.410096
996.489054,-2516.700203,-8142.265362,2298.286494
996.489368,-3256.906145,-8882.471304,2374.896044
996.489681,-2664.741391,-8660.409521,2451.505594
996.489994,-3182.885551,-9326.594869,2068.457845
996.490307,-3701.029710,-8512.368333,2374.896044
996.490620,-4885.359217,-8512.368333,2298.286494
996.490933,-4515.256246,-8512.368333,1225.752797
996.491246,-4367.215058,-8956.491898,842.705048
996.491559,-3997.112087,-7772.162391,536.266849
996.491872,-4071.132681,-8216.285956,842.705048
996.492185,-4071.132681,-8882.471304,1302.362347
996.492498,-3404.947333,-8660.409521,1225.752797
996.492811,-2516.700203,-8364.327145,995.924147
996.493124,-2664.741391,-9400.615463,2145.067394
996.493437,-3627.009116,-9252.574275,2298.286494
996.493750,-2812.782580,-9178.553681,2298.286494
996.494063,-2886.803174,-9548.656652,2145.067394
996.494376,-3404.947333,-8734.430116,2145.067394
996.494689,-4145.153275,-8216.285956,1302.362347
996.495002,-4515.256246,-7994.224174,842.705048
996.495315,-4293.194464,-8882.471304,383.047749
996.495628,-3997.112087,-8660.409521,0.000000
996.495941,-3923.091493,-8512.368333,383.047749
996.496254,-4515.256246,-8660.409521,1915.238745
996.496568,-3478.967927,-9474.636058,1149.143247
996.496881,-2886.803174,-9326.594869,1072.533697
996.497194,-2442.679609,-9178.553681,1149.143247
996.497507,-2960.823768,-8882.471304,1991.848295
996.497820,-3108.864956,-8956.491898,1685.410096
996.498133,-3034.844362,-8586.388927,1608.800546
996.498446,-3182.885551,-9400.615463,1378.971896
996.498759,-3627.009116,-8512.368333,689.485948
996.499072,-4145.153275,-8586.388927,842.705048
996.499385,-4589.276840,-7994.224174,766.095498
996.499698,-4589.276840,-8660.409521,383.047749
996.500011,-3849.070898,-8438.347739,-306.438199
996.500324,-4145.153275,-9178.553681,153.219100
996.500637,-3923.091493,-8956.491898,995.924147
996.500950,-3330.926739,-9326.594869,459.657299
996.501263,-2146.597232,-8956.491898,1225.752797
996.501576,-2960.823768,-9696.697840,1608.800546
996.501889,-3034.844362,-9474.636058,1608.800546
996.502202,-3182.885551,-9104.533087,1302.362347
996.502515,-2960.823768,-8882.471304,1455.581446
996.502828,-3627.009116,-9474.636058,1302.362347
996.503141,-3701.029710,-8660.409521,766.095498
996.503455,-4441.235652,-8364.327145,766.095498
996.503768,-4663.297435,-8438.347739,766.095498
996.504081,-4293.194464,-9030.512492,383.047749
996.504394,-3849.070898,-8216.285956,612.876398
996.504707,-4293.194464,-8512.368333,842.705048
996.505020,-3849.070898,-8586.388927,689.485948
996.505333,-2886.803174,-8586.388927,766.095498
996.505646,-2664.741391,-9030.512492,1608.800546
996.505959,-2590.720797,-9030.512492,1915.238745
996.506272,-2960.823768,-9030.512492,2834.553343
996.506585,-2960.823768,-9104.533087,1762.019645
996.506898,-3404.947333,-9252.574275,1915.238745
996.507211,-3775.050304,-8808.450710,1378.971896
996.507524,-4145.153275,-8956.491898,1378.971896
996.507837,-4663.297435,-8364.327145,1302.362347
996.508150,-4515.256246,-8956.491898,1149.143247
996.508463,-3997.112087,-7698.141797,842.705048
996.508776,-3552.988522,-8290.306550,766.095498
996.509089,-3775.050304,-8438.347739,842.705048
996.509402,-3701.029710,-8512.368333,2145.067394
996.509715,-2886.803174,-8438.347739,1455.581446
996.510028,-2960.823768,-9030.512492,2145.067394
996.510341,-3182.885551,-8956.491898,2221.676944
996.510655,-3108.864956,-9252.574275,2145.067394
996.510968,-2664.741391,-8956.491898,2221.676944
996.511281,-3552.988522,-9326.594869,1685.410096
996.511594,-3478.967927,-8142.265362,1532.190996
996.511907,-4515.256246,-8068.244768,1225.752797
996.512220,-4663.297435,-8512.368333,1378.971896
996.512533,-4071.132681,-8660.409521,383.047749
996.512846,-3404.947333,-8364.327145,612.876398
996.513159,-4071.132681,-8882.471304,1762.019645
996.513472,-3923.091493,-9104.533087,1915.238745
996.513785,-3034.844362,-8956.491898,2221.676944
996.514098,-2664.741391,-9030.512492,1915.238745
996.514411,-2886.803174,-9178.553681,2834.553343
996.514724,-2960.823768,-9252.574275,2451.505594
996.515037,-2886.803174,-8882.471304,2221.676944
996.515350,-3478.967927,-9030.512492,2221.676944
996.515663,-3256.906145,-8290.306550,1608.800546
996.515976,-3627.009116,-8290.306550,995.924147
996.516289,-4145.153275,-7328.038826,995.924147
996.516602,-3701.029710,-8512.368333,1072.533697
996.516915,-3478.967927,-8438.347739,459.657299
996.517228,-3775.050304,-8808.450710,766.095498
996.517541,-3923.091493,-8956.491898,1455.581446
996.517855,-3478.967927,-9474.636058,1532.190996
996.518168,-3256.906145,-9474.636058,1838.629195
996.518481,-3034.844362,-9918.759623,1915.238745
996.518794,-2738.761985,-8956.491898,1608.800546
996.519107,-2886.803174,-8734.430116,1838.629195
996.519420,-3404.947333,-8734.430116,1762.019645
996.519733,-3849.070898,-9178.553681,1608.800546
996.520046,-3923.091493,-8142.265362,842.705048
996.520359,-4737.318029,-7994.224174,1225.752797
996.520672,-5329.482782,-7698.141797,1149.143247
996.520985,-4441.235652,-8364.327145,76.609550
996.521298,-4071.132681,-7550.100608,-153.219100
996.521611,-3923.091493,-8142.265362,229.828649
996.521924,-4441.235652,-8512.368333,919.314598
996.522237,-3404.947333,-9030.512492,383.047749
996.522550,-2516.700203,-9178.553681,153.219100
996.522863,-2886.803174,-9918.759623,1225.752797
996.523176,-2590.720797,-9326.594869,1608.800546
996.523489,-2294.638420,-9622.677246,1685.410096
996.523802,-2664.741391,-9474.636058,1991.848295
996.524115,-3552.988522,-9030.512492,1225.752797
996.524428,-4071.132681,-8956.491898,0.000000
996.524741,-4811.338623,-7994.224174,-306.438199
996.525055,-4885.359217,-8364.327145,-383.047749
996.525368,-4441.235652,-8290.306550,-612.876398
996.525681,-4441.235652,-8216.285956,-536.266849
996.525994,-4811.338623,-8364.327145,-536.266849
996.526307,-4145.153275,-8512.368333,0.000000
996.526620,-2664.741391,-8808.450710,-689.485948
996.526933,-2368.659014,-9326.594869,-383.047749
996.527246,-2146.597232,-9474.636058,306.438199
996.527559,-2220.617826,-9622.677246,766.095498
996.527872,-2072.576638,-8808.450710,766.095498
996.528185,-2368.659014,-9770.718434,1225.752797
996.528498,-2442.679609,-9104.533087,-306.438199
996.528811,-3256.906145,-9252.574275,-842.705048
996.529124,-4293.194464,-9178.553681,-306.438199
996.529437,-4589.276840,-8956.491898,-612.876398
996.529750,-4219.173869,-8586.388927,-1225.752797
996.530063,-4737.318029,-8882.471304,-383.047749
996.530376,-4811.338623,-8882.471304,0.000000
996.530689,-4293.194464,-9400.615463,-1149.143247
996.531002,-3478.967927,-8808.450710,-1225.752797
996.531315,-3923.091493,-9326.594869,-153.219100
996.531628,-3627.009116,-9400.615463,0.000000
996.531941,-3034.844362,-9104.533087,0.000000
996.532255,-2812.782580,-8882.471304,0.000000
996.532568,-3182.885551,-8808.450710,153.219100
996.532881,-2590.720797,-8882.471304,-383.047749
996.533194,-3849.070898,-8364.327145,-229.828649
996.533507,-3478.967927,-8660.409521,919.314598
996.533820,-3256.906145,-9104.533087,76.609550
996.534133,-3478.967927,-8956.491898,-306.438199
996.534446,-4515.256246,-8956.491898,0.000000
996.534759,-4367.215058,-9326.594869,383.047749
996.535072,-4219.173869,-8882.471304,229.828649
996.535385,-3849.070898,-8512.368333,766.095498
996.535698,-3849.070898,-8956.491898,1072.533697
996.536011,-3849.070898,-9030.512492,919.314598
996.536324,-4071.132681,-8216.285956,459.657299
996.536637,-4441.235652,-8660.409521,689.485948
996.536950,-4071.132681,-8068.244768,383.047749
996.537263,-4145.153275,-8068.244768,383.047749
996.537576,-3923.091493,-7624.121203,383.047749
996.537889,-3849.070898,-8586.388927,919.314598
996.538202,-2960.823768,-8438.347739,0.000000
996.538515,-3478.967927,-8586.388927,1072.533697
996.538828,-3923.091493,-8586.388927,2374.896044
996.539141,-2812.782580,-9696.697840,1991.848295
996.539455,-1998.556043,-9252.574275,1532.190996
996.539768,-2738.761985,-9992.780217,1991.848295
996.540081,-2812.782580,-9252.574275,2681.334243
996.540394,-3182.885551,-9252.574275,1455.581446
996.540707,-3108.864956,-8364.327145,1685.410096
996.541020,-3552.988522,-8882.471304,1991.848295
996.541333,-4367.215058,-8068.244768,919.314598
996.541646,-4885.359217,-7846.182985,229.828649
996.541959,-4811.338623,-7846.182985,0.000000
996.542272,-4367.215058,-8290.306550,0.000000
996.542585,-3849.070898,-7772.162391,229.828649
996.542898,-3701.029710,-8142.265362,1455.581446
996.543211,-3849.070898,-8734.430116,2221.676944
996.543524,-2590.720797,-8660.409521,1225.752797
996.543837,-1998.556043,-9400.615463,1225.752797
996.544150,-1998.556043,-9696.697840,2374.896044
996.544463,-2590.720797,-9548.656652,2681.334243
996.544776,-2664.741391,-9104.533087,2451.505594
996.545089,-3330.926739,-9030.512492,1991.848295
996.545402,-3108.864956,-8290.306550,919.314598
996.545715,-3627.009116,-8438.347739,0.000000
996.546028,-4293.194464,-7550.100608,153.219100
996.546342,-4663.297435,-8142.265362,-383.047749
996.546655,-4589.276840,-7254.018232,-842.705048
996.546968,-4737.318029,-8068.244768,0.000000
996.547281,-4515.256246,-8142.265362,306.438199
996.547594,-3775.050304,-8956.491898,383.047749
996.547907,-2960.823768,-8956.491898,995.924147
996.548220,-3256.906145,-9992.780217,1149.143247
996.548533,-2812.782580,-9326.594869,1302.362347
996.548846,-2960.823768,-9474.636058,1455.581446
996.549159,-2590.720797,-8586.388927,995.924147
996.549472,-3627.009116,-9474.636058,1072.533697
996.549785,-3404.947333,-8364.327145,919.314598
996.550098,-4367.215058,-8364.327145,-689.485948
996.550411,-4885.359217,-7846.182985,-153.219100
996.550724,-4515.256246,-8956.491898,-842.705048
996.551037,-4219.173869,-7994.224174,-1378.971896
996.551350,-4737.318029,-8364.327145,-612.876398
996.551663,-4219.173869,-8512.368333,-842.705048
996.551976,-3552.988522,-9252.574275,-689.485948
996.552289,-3478.967927,-9252.574275,-536.266849
996.552602,-2886.803174,-9992.780217,689.485948
996.552915,-2812.782580,-10214.842000,842.705048
996.553228,-2368.659014,-10436.903782,76.609550
996.553542,-2812.782580,-9844.739029,995.924147
996.553855,-3256.906145,-9696.697840,1225.752797
996.554168,-3478.967927,-8882.471304,-153.219100
996.554481,-3701.029710,-8586.388927,-612.876398
996.554794,-4515.256246,-8808.450710,76.609550
996.555107,-3775.050304,-7994.224174,-1762.019645
996.555420,-3701.029710,-7846.182985,-1225.752797
996.555733,-4293.194464,-8438.347739,76.609550
996.556046,-4145.153275,-9178.553681,-612.876398
996.556359,-2886.803174,-8512.368333,-1378.971896
996.556672,-2886.803174,-9548.656652,76.609550
996.556985,-2960.823768,-9548.656652,612.876398
996.557298,-2664.741391,-9992.780217,842.705048
996.557611,-2960.823768,-8808.450710,1072.533697
996.557924,-3627.009116,-9326.594869,1225.752797
996.558237,-3034.844362,-8956.491898,76.609550
996.558550,-3849.070898,-9326.594869,-153.219100
996.558863,-4367.215058,-7772.162391,0.000000
996.559176,-4515.256246,-8068.244768,-229.828649
996.559489,-3108.864956,-8068.244768,-459.657299
996.559802,-3923.091493,-8068.244768,766.095498
996.560115,-4293.194464,-8438.347739,383.047749
996.560428,-4145.153275,-8734.430116,1302.362347
996.560742,-2960.823768,-8512.368333,459.657299
996.561055,-3330.926739,-8956.491898,766.095498
996.561368,-2738.761985,-8882.471304,842.705048
996.561681,-3256.906145,-9400.615463,1072.533697
996.561994,-2960.823768,-8586.388927,689.485948
996.562307,-3108.864956,-8438.347739,1685.410096
996.562620,-3478.967927,-8512.368333,1302.362347
996.562933,-4293.194464,-8364.327145,919.314598
996.563246,-4663.297435,-9178.553681,1149.143247
996.563559,-4145.153275,-8216.285956,0.000000
996.563872,-3997.112087,-7550.100608,-383.047749
996.564185,-4145.153275,-7920.203579,459.657299
996.564498,-4367.215058,-9252.574275,229.828649
996.564811,-2738.761985,-8586.388927,919.314598
996.565124,-3330.926739,-8956.491898,2068.457845
996.565437,-2960.823768,-9326.594869,2987.772442
996.565750,-3404.947333,-9474.636058,2604.724693
996.566063,-3256.906145,-9178.553681,2145.067394
996.566376,-3552.988522,-9104.533087,1072.533697
996.566689,-3034.844362,-7920.203579,383.047749
996.567002,-3849.070898,-7624.121203,229.828649
996.567315,-3923.091493,-7624.121203,536.266849
996.567628,-3923.091493,-8660.409521,306.438199
996.567942,-3775.050304,-8068.244768,229.828649
996.568255,-4441.235652,-8586.388927,1302.362347
996.568568,-4293.194464,-8808.450710,1608.800546
996.568881,-3330.926739,-9474.636058,1225.752797
996.569194,-2812.782580,-9252.574275,536.266849
996.569507,-2886.803174,-9770.718434,1685.410096
996.569820,-2738.761985,-9030.512492,1608.800546
996.570133,-2664.741391,-9104.533087,995.924147
996.570446,-2590.720797,-9030.512492,1149.143247
996.570759,-3034.844362,-9326.594869,1302.362347
996.571072,-2960.823768,-8586.388927,766.095498
996.571385,-4145.153275,-8216.285956,612.876398
996.571698,-4219.173869,-7994.224174,612.876398
996.572011,-3923.091493,-8142.265362,229.828649
996.572324,-3849.070898,-8216.285956,459.657299
996.572637,-5033.400406,-8068.244768,383.047749
996.572950,-4589.276840,-8512.368333,536.266849
996.573263,-3923.091493,-9104.533087,0.000000
996.573576,-3627.009116,-8956.491898,0.000000
996.573889,-3034.844362,-9178.553681,459.657299
996.574202,-2886.803174,-9474.636058,383.047749
996.574515,-3256.906145,-8882.471304,1225.752797
996.574828,-3478.967927,-8882.471304,1532.190996
996.575141,-2886.803174,-8956.491898,842.705048
996.575454,-3478.967927,-9104.533087,383.047749
996.575767,-4515.256246,-8882.471304,766.095498
996.576080,-4663.297435,-8956.491898,612.876398
996.576393,-3701.029710,-8142.265362,-612.876398
996.576706,-4293.194464,-7698.141797,-842.705048
996.577020,-4145.153275,-8290.306550,-306.438199
996.577333,-3478.967927,-9252.574275,0.000000
996.577646,-3330.926739,-8734.430116,-459.657299
996.577959,-2812.782580,-9622.677246,689.485948
996.578272,-2738.761985,-9252.574275,1608.800546
996.578585,-3182.885551,-9326.594869,1685.410096
996.578898,-2960.823768,-8956.491898,1685.410096
996.579211,-3108.864956,-9474.636058,842.705048
996.579524,-3478.967927,-8290.306550,0.000000
996.579837,-4219.173869,-7328.038826,-766.095498
996.580150,-4663.297435,-8364.327145,0.000000
996.580463,-4071.132681,-9178.553681,-612.876398
996.580776,-3997.112087,-9104.533087,-383.047749
996.581089,-4589.276840,-8438.347739,919.314598
996.581402,-3849.070898,-8734.430116,612.876398
996.581715,-2812.782580,-9696.697840,689.485948
996.582028,-3330.926739,-9326.594869,306.438199
996.582341,-2886.803174,-9178.553681,919.314598
996.582654,-2886.803174,-8438.347739,995.924147
996.582967,-2664.741391,-8216.285956,766.095498
996.583280,-3108.864956,-8808.450710,689.485948
996.583593,-3627.009116,-8290.306550,-612.876398
996.583906,-3775.050304,-7846.182985,-1072.533697
996.584219,-4811.338623,-8068.244768,76.609550
996.584532,-5033.400406,-8882.471304,1072.533697
996.584845,-3923.091493,-8586.388927,-536.266849
996.585158,-4441.235652,-8808.450710,76.609550
996.585471,-4589.276840,-9030.512492,459.657299
996.585784,-3923.091493,-9252.574275,-153.219100
996.586097,-2590.720797,-8512.368333,-1225.752797
996.586410,-2812.782580,-9326.594869,459.657299
996.586724,-2664.741391,-9178.553681,1378.971896
996.587037,-2664.741391,-9400.615463,766.095498
996.587350,-2664.741391,-8290.306550,1378.971896
996.587663,-3701.029710,-9400.615463,1455.581446
996.587976,-3108.864956,-9252.574275,383.047749
996.588289,-3923.091493,-8882.471304,76.609550
996.588602,-4959.379811,-7994.224174,0.000000
996.588915,-4663.297435,-7846.182985,-1149.143247
996.589228,-3923.091493,-8142.265362,-1608.800546
996.589541,-4737.318029,-8734.430116,-459.657299
996.589854,-3552.988522,-8290.306550,-612.876398
996.590167,-3404.947333,-9326.594869,229.828649
996.590480,-3478.967927,-9104.533087,383.047749
996.590793,-3108.864956,-9770.718434,1225.752797
996.591106,-2886.803174,-9844.739029,1685.410096
996.591419,-3034.844362,-9622.677246,1991.848295
996.591732,-3330.926739,-9474.636058,1991.848295
996.592045,-3701.029710,-9104.533087,766.095498
996.592358,-3108.864956,-9104.533087,-383.047749
996.592671,-4293.194464,-8364.327145,-306.438199
996.592984,-4737.318029,-8438.347739,76.609550
996.593297,-3997.112087,-8364.327145,-612.876398
996.593610,-3701.029710,-8956.491898,-229.828649
996.593923,-4441.235652,-8216.285956,612.876398
996.594236,-3478.967927,-8808.450710,689.485948
996.594549,-3108.864956,-8956.491898,1225.752797
996.594862,-2738.761985,-9178.553681,995.924147
996.595175,-2738.761985,-9400.615463,1608.800546
996.595488,-3034.844362,-9400.615463,1225.752797
996.595801,-3552.988522,-8438.347739,919.314598
996.596114,-3701.029710,-9104.533087,1072.533697
996.596428,-3701.029710,-8808.450710,842.705048
996.596741,-3775.050304,-8882.471304,306.438199
996.597054,-4293.194464,-7994.224174,842.705048
996.597367,-4367.215058,-8734.430116,459.657299
996.597680,-3330.926739,-8068.244768,-536.266849
996.597993,-4293.194464,-8586.388927,0.000000
996.598306,-3627.009116,-8438.347739,383.047749
996.598619,-3034.844362,-9178.553681,229.828649
996.598932,-2516.700203,-8808.450710,612.876398
996.599245,-2812.782580,-9918.759623,1685.410096
996.599558,-2368.659014,-9474.636058,1991.848295
996.599871,-2886.803174,-9474.636058,1838.629195
996.600184,-2442.679609,-8734.430116,1762.019645
996.600497,-3404.947333,-9326.594869,1532.190996
996.600810,-3330.926739,-7994.224174,842.705048
996.601123,-4737.318029,-7698.141797,689.485948
996.601436,-5033.400406,-7550.100608,153.219100
996.601749,-4589.276840,-8290.306550,0.000000
996.602062,-4663.297435,-8142.265362,-689.485948
996.602375,-4959.379811,-8216.285956,153.219100
996.602688,-4811.338623,-8882.471304,306.438199
996.603001,-3552.988522,-9252.574275,153.219100
996.603314,-2886.803174,-8808.450710,536.266849
996.603627,-2516.700203,-9252.574275,1838.629195
996.603940,-2442.679609,-9474.636058,1149.143247
996.604253,-2368.659014,-8512.368333,842.705048
996.604566,-2812.782580,-9252.574275,1225.752797
996.604879,-2664.741391,-8808.450710,1072.533697
996.605192,-2886.803174,-8586.388927,1072.533697
996.605505,-3923.091493,-8068.244768,842.705048
996.605818,-4071.132681,-8660.409521,689.485948
996.606132,-4071.132681,-7994.224174,-459.657299
996.606445,-5181.441594,-8290.306550,-459.657299
996.606758,-5551.544565,-7994.224174,-229.828649
996.607071,-5033.400406,-8956.491898,0.000000
996.607384,-4071.132681,-8956.491898,-459.657299
996.607697,-3627.009116,-9622.677246,383.047749
996.608010,-3404.947333,-9252.574275,919.314598
996.608323,-3552.988522,-9252.574275,842.705048
996.608636,-2812.782580,-9030.512492,689.485948
996.608949,-2960.823768,-9474.636058,1225.752797
996.609262,-3034.844362,-8808.450710,995.924147
996.609575,-3775.050304,-8882.471304,919.314598
996.609888,-3997.112087,-8660.409521,919.314598
996.610201,-3701.029710,-8734.430116,0.000000
996.610514,-3108.864956,-8290.306550,-306.438199
996.610827,-4219.173869,-8216.285956,-689.485948
996.611140,-4441.235652,-8216.285956,-306.438199
996.611453,-3627.009116,-9326.594869,-383.047749
996.611766,-2664.741391,-9104.533087,0.000000
996.612079,-3404.947333,-9252.574275,995.924147
996.612392,-3404.947333,-9474.636058,1149.143247
996.612705,-3034.844362,-9770.718434,766.095498
996.613018,-3108.864956,-9474.636058,536.266849
996.613331,-2960.823768,-9104.533087,0.000000
996.613644,-3034.844362,-8660.409521,-383.047749
996.613957,-3404.947333,-8438.347739,612.876398
996.614270,-3478.967927,-8956.491898,459.657299
996.614583,-3034.844362,-8660.409521,-153.219100
996.614896,-3775.050304,-8956.491898,229.828649
996.615209,-4219.173869,-8734.430116,919.314598
996.615522,-3330.926739,-9030.512492,689.485948
996.615836,-2960.823768,-8512.368333,612.876398
996.616149,-3627.009116,-9104.533087,612.876398
996.616462,-3923.091493,-8586.388927,1532.190996
996.616775,-3849.070898,-8660.409521,536.266849
996.617088,-3627.009116,-8438.347739,0.000000
996.617401,-4293.194464,-8882.471304,153.219100
996.617714,-4293.194464,-8142.265362,0.000000
996.618027,-3849.070898,-8734.430116,0.000000
996.618340,-4959.379811,-8216.285956,459.657299
996.618653,-4515.256246,-8512.368333,536.266849
996.618966,-3849.070898,-8586.388927,383.047749
996.619279,-3849.070898,-8882.471304,995.924147
996.619592,-3552.988522,-9178.553681,1378.971896
996.619905,-3256.906145,-9548.656652,1072.533697
996.620218,-2738.761985,-9178.553681,919.314598
996.620531,-2812.782580,-8586.388927,1378.971896
996.620844,-2960.823768,-8586.388927,1838.629195
996.621157,-3330.926739,-9178.553681,995.924147
996.621470,-2812.782580,-9326.594869,1072.533697
996.621783,-3701.029710,-8660.409521,1149.143247
996.622096,-3775.050304,-8290.306550,995.924147
996.622409,-4441.235652,-8068.244768,1532.190996
996.622722,-4441.235652,-8660.409521,1378.971896
996.623035,-3775.050304,-7920.203579,459.657299
996.623348,-3552.988522,-7994.224174,919.314598
996.623661,-4071.132681,-8956.491898,536.266849
996.623974,-3997.112087,-9326.594869,1532.190996
996.624287,-2664.741391,-9104.533087,1685.410096
996.624600,-2590.720797,-9252.574275,2604.724693
996.624913,-2738.761985,-9918.759623,3370.820191
996.625226,-2738.761985,-9770.718434,2681.334243
996.625540,-2516.700203,-8956.491898,1991.848295
996.625853,-3627.009116,-8956.491898,2451.505594
996.626166,-3034.844362,-8438.347739,2068.457845
996.626479,-3330.926739,-8142.265362,1455.581446
996.626792,-4367.215058,-7254.018232,1915.238745
996.627105,-4737.318029,-7994.224174,1455.581446
996.627418,-4145.153275,-8068.244768,383.047749
996.627731,-4293.194464,-7994.224174,766.095498
996.628044,-4293.194464,-8068.244768,2298.286494
996.628357,-3627.009116,-9252.574275,2221.676944
996.628670,-3034.844362,-8808.450710,1915.238745
996.628983,-2960.823768,-9696.697840,2757.943793
996.629296,-2664.741391,-9326.594869,2834.553343
996.629609,-2516.700203,-9622.677246,2374.896044
996.629922,-2442.679609,-9030.512492,2374.896044
996.630235,-2960.823768,-9178.553681,2987.772442
996.630548,-3256.906145,-7328.038826,1685.410096
996.630861,-3478.967927,-8290.306550,1838.629195
996.631174,-4811.338623,-8216.285956,1838.629195
996.631487,-4293.194464,-7846.182985,1072.533697
996.631800,-3849.070898,-8068.244768,383.047749
996.632113,-4737.318029,-8438.347739,1072.533697
996.632426,-4663.297435,-8364.327145,1149.143247
996.632739,-3775.050304,-8438.347739,1378.971896
996.633052,-3552.988522,-8364.327145,1532.190996
996.633365,-3182.885551,-9252.574275,2221.676944
996.633678,-2960.823768,-9696.697840,2068.457845
996.633991,-3478.967927,-8808.450710,2221.676944
996.634304,-3849.070898,-9326.594869,2298.286494
996.634617,-3552.988522,-8660.409521,1762.019645
996.634930,-3627.009116,-8364.327145,1838.629195
996.635244,-4367.215058,-7476.080014,1378.971896
996.635557,-3775.050304,-8216.285956,842.705048
996.635870,-3404.947333,-7846.182985,-229.828649
996.636183,-4145.153275,-8068.244768,306.438199
996.636496,-4071.132681,-8216.285956,689.485948
996.636809,-3330.926739,-9252.574275,1225.752797
996.637122,-2812.782580,-9178.553681,842.705048
996.637435,-2368.659014,-9548.656652,2221.676944
996.637748,-2812.782580,-9474.636058,2604.724693
996.638061,-2812.782580,-9622.677246,1608.800546
996.638374,-2812.782580,-8660.409521,1225.752797
996.638687,-3552.988522,-9326.594869,1378.971896
996.639000,-3034.844362,-8734.430116,306.438199
996.639313,-3923.091493,-8586.388927,153.219100
996.639626,-4293.194464,-8216.285956,0.000000
996.639939,-3923.091493,-8512.368333,306.438199
996.640252,-3330.926739,-8068.244768,-536.266849
996.640565,-4219.173869,-8364.327145,229.828649
996.640878,-3627.009116,-8438.347739,536.266849
996.641191,-3034.844362,-9178.553681,459.657299
996.641504,-2738.761985,-8734.430116,536.266849
996.641817,-2664.741391,-9474.636058,1378.971896
996.642130,-2812.782580,-9696.697840,1378.971896
996.642443,-3108.864956,-9548.656652,1149.143247
996.642756,-3330.926739,-9918.759623,1225.752797
996.643069,-3330.926739,-9474.636058,689.485948
996.643382,-3997.112087,-9030.512492,459.657299
996.643695,-4737.318029,-8882.471304,612.876398
996.644008,-4737.318029,-9178.553681,306.438199
996.644321,-3997.112087,-8660.409521,-306.438199
996.644634,-4219.173869,-8068.244768,0.000000
996.644948,-4589.276840,-8290.306550,995.924147
996.645261,-3701.029710,-8586.388927,229.828649
996.645574,-2960.823768,-8808.450710,383.047749
996.645887,-2516.700203,-9030.512492,1302.362347
996.646200,-2812.782580,-8882.471304,1838.629195
996.646513,-3182.885551,-9326.594869,1915.238745
996.646826,-3404.947333,-9178.553681,1915.238745
996.647139,-3330.926739,-9474.636058,2068.457845
996.647452,-3775.050304,-8586.388927,689.485948
996.647765,-4737.318029,-8808.450710,1225.752797
996.648078,-4589.276840,-8660.409521,459.657299
996.648391,-4737.318029,-8660.409521,153.219100
996.648704,-4071.132681,-8438.347739,0.000000
996.649017,-4737.318029,-8586.388927,766.095498
996.649330,-4219.173869,-9104.533087,1532.190996
996.649643,-3182.885551,-8438.347739,1149.143247
996.649956,-2812.782580,-8956.491898,2145.067394
996.650269,-3404.947333,-9474.636058,2145.067394
996.650582,-2368.659014,-8882.471304,1608.800546
996.650895,-2368.659014,-8956.491898,2145.067394
996.651208,-2738.761985,-8956.491898,2145.067394
996.651521,-2738.761985,-8586.388927,1532.190996
996.651834,-2442.679609,-8660.409521,1455.581446
996.652147,-3997.112087,-8438.347739,2911.162892
996.652460,-3849.070898,-8956.491898,1532.190996
996.652773,-3404.947333,-8364.327145,842.705048
996.653086,-3997.112087,-8438.347739,1378.971896
996.653399,-4293.194464,-8882.471304,1532.190996
996.653712,-3849.070898,-9104.533087,1455.581446
996.654025,-3701.029710,-8142.265362,1378.971896
996.654338,-3404.947333,-7846.182985,2221.676944
996.654652,-2886.803174,-8586.388927,2068.457845
996.654965,-2516.700203,-9178.553681,1915.238745
996.655278,-3627.009116,-8512.368333,2451.505594
996.655591,-3849.070898,-8808.450710,2681.334243
996.655904,-2960.823768,-8364.327145,1915.238745
996.656217,-3478.967927,-8290.306550,1685.410096
996.656530,-4145.153275,-8290.306550,1149.143247
996.656843,-3923.091493,-8364.327145,842.705048
996.657156,-3404.947333,-8660.409521,306.438199
996.657469,-3997.112087,-8586.388927,1762.019645
996.657782,-3701.029710,-8364.327145,2068.457845
996.658095,-3849.070898,-9474.636058,1532.190996
996.658408,-3256.906145,-9400.615463,1149.143247
996.658721,-3330.926739,-9548.656652,1762.019645
996.659034,-3108.864956,-8956.491898,1532.190996
996.659347,-3478.967927,-8734.430116,1455.581446
996.659660,-3552.988522,-9474.636058,2068.457845
996.659973,-3997.112087,-9918.759623,2298.286494
996.660286,-3627.009116,-8734.430116,1302.362347
996.660599,-4737.318029,-8290.306550,1378.971896
996.660912,-5403.503377,-8142.265362,1532.190996
996.661225,-4441.235652,-8068.244768,0.000000
996.661538,-3330.926739,-7994.224174,-459.657299
996.661851,-4071.132681,-8364.327145,459.657299
996.662164,-3627.009116,-8216.285956,536.266849
996.662477,-2516.700203,-8586.388927,1072.533697
996.662790,-2220.617826,-8882.471304,1302.362347
996.663103,-2294.638420,-9696.697840,2298.286494
996.663416,-3108.864956,-10066.800811,2145.067394
996.663729,-3330.926739,-9696.697840,2145.067394
996.664042,-3627.009116,-9474.636058,1532.190996
996.664356,-3108.864956,-9178.553681,995.924147
996.664669,-4219.173869,-8734.430116,306.438199
996.664982,-4885.359217,-8216.285956,229.828649
996.665295,-4367.215058,-8882.471304,-459.657299
996.665608,-3478.967927,-8216.285956,-1225.752797
996.665921,-3997.112087,-8216.285956,0.000000
996.666234,-4219.173869,-8142.265362,689.485948
996.666547,-3182.885551,-8882.471304,1072.533697
996.666860,-2590.720797,-8956.491898,229.828649
996.667173,-2812.782580,-9252.574275,1455.581446
996.667486,-2886.803174,-8882.471304,1149.143247
996.667799,-3256.906145,-9548.656652,1532.190996
996.668112,-3404.947333,-9474.636058,1608.800546
996.668425,-3701.029710,-9770.718434,1378.971896
996.668738,-3552.988522,-9400.615463,766.095498
996.669051,-4515.256246,-8808.450710,842.705048
996.669364,-4515.256246,-8734.430116,536.266849
996.669677,-4071.132681,-8216.285956,-383.047749
996.669990,-3627.009116,-7254.018232,-536.266849
996.670303,-3997.112087,-7994.224174,229.828649
996.670616,-3478.967927,-8216.285956,306.438199
996.670929,-3108.864956,-8808.450710,842.705048
996.671242,-3404.947333,-9030.512492,1915.238745
996.671555,-3108.864956,-9770.718434,2911.162892
996.671867,-2960.823768,-9844.739029,3294.210641
996.672180,-3404.947333,-10288.862594,2528.115143
996.672493,-3404.947333,-9548.656652,1302.362347
996.672806,-3404.947333,-9474.636058,1225.752797
996.673119,-3701.029710,-8734.430116,689.485948
996.673432,-4293.194464,-7846.182985,1225.752797
996.673745,-4145.153275,-7994.224174,1149.143247
996.674058,-3330.926739,-7550.100608,0.000000
996.674371,-3478.967927,-8068.244768,459.657299
996.674684,-3997.112087,-7994.224174,842.705048
996.674997,-4145.153275,-8364.327145,1685.410096
996.675310,-3404.947333,-8512.368333,1455.581446
996.675623,-3182.885551,-9326.594869,1915.238745
996.675936,-2960.823768,-9696.697840,2145.067394
996.676248,-3775.050304,-9918.759623,2374.896044
996.676561,-3701.029710,-9104.533087,2298.286494
996.676874,-3404.947333,-9474.636058,2298.286494
996.677187,-2590.720797,-9474.636058,2068.457845
996.677500,-3775.050304,-9252.574275,2068.457845
996.677813,-4367.215058,-8438.347739,1915.238745
996.678126,-3627.009116,-7624.121203,1302.362347
996.678439,-2960.823768,-7105.977043,1072.533697
996.678752,-3997.112087,-7994.224174,1378.971896
996.679065,-3701.029710,-7476.080014,1149.143247
996.679378,-3034.844362,-8142.265362,842.705048
996.679691,-2664.741391,-9104.533087,1532.190996
996.680004,-3256.906145,-9548.656652,2374.896044
996.680317,-2960.823768,-9474.636058,2298.286494
996.680629,-3478.967927,-9918.759623,2911.162892
996.680942,-3627.009116,-10584.944971,2987.772442
996.681255,-2960.823768,-9770.718434,1838.629195
996.681568,-3256.906145,-8290.306550,1915.238745
996.681881,-4737.318029,-8068.244768,2145.067394
996.682194,-4737.318029,-8364.327145,1762.019645
996.682507,-3330.926739,-8068.244768,0.000000
996.682820,-3923.091493,-7772.162391,536.266849
996.683133,-4663.297435,-8068.244768,1455.581446
996.683446,-3849.070898,-8364.327145,995.924147
996.683759,-2812.782580,-8660.409521,1225.752797
996.684072,-3627.009116,-8882.471304,2374.896044
996.684385,-2960.823768,-9104.533087,2145.067394
996.684698,-3256.906145,-9770.718434,2374.896044
996.685011,-3627.009116,-8882.471304,1915.238745
996.685323,-2960.823768,-9252.574275,1838.629195
996.685636,-3108.864956,-9178.553681,1072.533697
996.685949,-4145.153275,-8882.471304,919.314598
996.686262,-4367.215058,-7920.203579,919.314598
996.686575,-4071.132681,-8734.430116,306.438199
996.686888,-3404.947333,-8512.368333,536.266849
996.687201,-4589.276840,-8512.368333,1302.362347
996.687514,-4367.215058,-8586.388927,1455.581446
996.687827,-3182.885551,-8956.491898,536.266849
996.688140,-3256.906145,-8660.409521,612.876398
996.688453,-3775.050304,-9030.512492,1685.410096
996.688766,-2886.803174,-8586.388927,919.314598
996.689079,-3034.844362,-8882.471304,1302.362347
996.689392,-2516.700203,-9252.574275,1685.410096
996.689704,-3182.885551,-9474.636058,1302.362347
996.690017,-3108.864956,-8882.471304,995.924147
996.690330,-4441.235652,-8660.409521,842.705048
996.690643,-4441.235652,-9104.533087,1149.143247
996.690956,-4071.132681,-8734.430116,153.219100
996.691269,-3478.967927,-8586.388927,306.438199
996.691582,-3997.112087,-8660.409521,689.485948
996.691895,-3775.050304,-8734.430116,383.047749
996.692208,-2812.782580,-8290.306550,153.219100
996.692521,-3034.844362,-8882.471304,383.047749
996.692834,-2664.741391,-9030.512492,1149.143247
996.693147,-2664.741391,-9474.636058,2068.457845
996.693460,-2368.659014,-9252.574275,1608.800546
996.693773,-3182.885551,-9548.656652,2145.067394
996.694085,-2738.761985,-8734.430116,1991.848295
996.694398,-4219.173869,-9474.636058,1455.581446
996.694711,-4515.256246,-8734.430116,612.876398
996.695024,-4219.173869,-9030.512492,-306.438199
996.695337,-3775.050304,-8068.244768,-536.266849
996.695650,-4589.276840,-8142.265362,1072.533697
996.695963,-4367.215058,-7624.121203,1455.581446
996.696276,-3552.988522,-9178.553681,1225.752797
996.696589,-2960.823768,-8364.327145,1072.533697
996.696902,-3330.926739,-9474.636058,1532.190996
996.697215,-2960.823768,-9400.615463,1685.410096
996.697528,-2812.782580,-9252.574275,1915.238745
996.697841,-2886.803174,-8882.471304,1991.848295
996.698154,-3330.926739,-9474.636058,2068.457845
996.698466,-3478.967927,-8956.491898,842.705048
996.698779,-4589.276840,-8512.368333,1532.190996
996.699092,-4219.173869,-8660.409521,689.485948
996.699405,-4219.173869,-8438.347739,383.047749
996.699718,-3775.050304,-8364.327145,459.657299
996.700031,-4663.297435,-8364.327145,1378.971896
996.700344,-3997.112087,-8586.388927,1378.971896
996.700657,-3404.947333,-8660.409521,1302.362347
996.700970,-3256.906145,-9030.512492,1915.238745
996.701283,-3478.967927,-8956.491898,2374.896044
996.701596,-2960.823768,-9178.553681,1762.019645
996.701909,-3108.864956,-8882.471304,2068.457845
996.702222,-3478.967927,-8956.491898,2221.676944
996.702535,-3552.988522,-8586.388927,1838.629195
996.702847,-3627.009116,-8808.450710,1608.800546
996.703160,-3701.029710,-8290.306550,1455.581446
996.703473,-3775.050304,-8734.430116,1455.581446
996.703786,-3182.885551,-8586.388927,1302.362347
996.704099,-3849.070898,-8734.430116,1685.410096
996.704412,-4071.132681,-8512.368333,2145.067394
996.704725,-3478.967927,-8734.430116,1455.581446
996.705038,-2886.803174,-8808.450710,1149.143247
996.705351,-3108.864956,-8808.450710,1302.362347
996.705664,-2664.741391,-8956.491898,2451.505594
996.705977,-3034.844362,-8290.306550,2681.334243
996.706290,-3108.864956,-8586.388927,2374.896044
996.706603,-3478.967927,-9252.574275,2681.334243
996.706916,-3108.864956,-8734.430116,1608.800546
996.707229,-4071.132681,-8364.327145,1685.410096
996.707541,-4663.297435,-8512.368333,1685.410096
996.707854,-3701.029710,-8956.491898,689.485948
996.708167,-3552.988522,-7994.224174,1072.533697
996.708480,-4515.256246,-8142.265362,1991.848295
996.708793,-4367.215058,-8438.347739,1838.629195
996.709106,-2960.823768,-9252.574275,1072.533697
996.709419,-2368.659014,-8734.430116,1225.752797
996.709732,-2812.782580,-9178.553681,2221.676944
996.710045,-2590.720797,-9252.574275,2145.067394
996.710358,-2294.638420,-9178.553681,1991.848295
996.710671,-3108.864956,-8438.347739,2528.115143
996.710984,-3775.050304,-8956.491898,2374.896044
996.711297,-4219.173869,-8660.409521,1072.533697
996.711610,-4959.379811,-8290.306550,766.095498
996.711922,-4885.359217,-8660.409521,612.876398
996.712235,-4441.235652,-8216.285956,76.609550
996.712548,-4959.379811,-8586.388927,919.314598
996.712861,-5551.544565,-8512.368333,1532.190996
996.713174,-4071.132681,-8142.265362,536.266849
996.713487,-3108.864956,-8290.306550,0.000000
996.713800,-2886.803174,-8734.430116,689.485948
996.714113,-2886.803174,-8660.409521,1225.752797
996.714426,-2738.761985,-8512.368333,1302.362347
996.714739,-2960.823768,-8364.327145,1455.581446
996.715052,-3330.926739,-9178.553681,1302.362347
996.715365,-2886.803174,-8660.409521,76.609550
996.715678,-3849.070898,-8364.327145,0.000000
996.715991,-4663.297435,-8734.430116,76.609550
996.716303,-4589.276840,-8882.471304,0.000000
996.716616,-3849.070898,-8660.409521,-459.657299
996.716929,-4589.276840,-9030.512492,0.000000
996.717242,-4441.235652,-8808.450710,-383.047749
996.717555,-3182.885551,-9326.594869,-1149.143247
996.717868,-2516.700203,-8586.388927,-995.924147
996.718181,-2368.659014,-9548.656652,0.000000
996.718494,-1628.453072,-9326.594869,0.000000
996.718807,-2368.659014,-9178.553681,229.828649
996.719120,-2516.700203,-8882.471304,306.438199
996.719433,-2812.782580,-9474.636058,0.000000
996.719746,-2960.823768,-9326.594869,-612.876398
996.720059,-4293.194464,-8808.450710,-383.047749
996.720372,-4589.276840,-8808.450710,-536.266849
996.720684,-4293.194464,-8882.471304,-1072.533697
996.720997,-4071.132681,-9104.533087,-842.705048
996.721310,-4885.359217,-9104.533087,-766.095498
996.721623,-3997.112087,-8956.491898,-1455.581446
996.721936,-3627.009116,-9030.512492,-1455.581446
996.722249,-3775.050304,-9400.615463,-383.047749
996.722562,-3330.926739,-9252.574275,0.000000
996.722875,-2442.679609,-9474.636058,0.000000
996.723188,-2960.823768,-9030.512492,306.438199
996.723501,-3627.009116,-9474.636058,383.047749
996.723814,-2886.803174,-9178.553681,-229.828649
996.724127,-3108.864956,-9104.533087,-536.266849
996.724440,-3627.009116,-8660.409521,0.000000
996.724753,-3923.091493,-8882.471304,0.000000
996.725065,-3997.112087,-8216.285956,-995.924147
996.725378,-4589.276840,-8290.306550,0.000000
996.725691,-4515.256246,-8364.327145,229.828649
996.726004,-4293.194464,-9548.656652,-153.219100
996.726317,-3923.091493,-8660.409521,153.219100
996.726630,-4071.132681,-8882.471304,1378.971896
996.726943,-3701.029710,-8734.430116,842.705048
996.727256,-2960.823768,-9104.533087,612.876398
996.727569,-3627.009116,-8364.327145,459.657299
996.727882,-3775.050304,-9252.574275,766.095498
996.728195,-3404.947333,-8882.471304,612.876398
996.728508,-4071.132681,-8882.471304,766.095498
996.728821,-3923.091493,-8586.388927,919.314598
996.729134,-3627.009116,-8512.368333,689.485948
996.729447,-3330.926739,-8586.388927,536.266849
996.729759,-3404.947333,-8882.471304,1378.971896
996.730072,-3108.864956,-8808.450710,1378.971896
996.730385,-2442.679609,-8734.430116,1378.971896
996.730698,-3256.906145,-8808.450710,2221.676944
996.731011,-3108.864956,-8956.491898,2451.505594
996.731324,-3034.844362,-9030.512492,1838.629195
996.731637,-3108.864956,-8660.409521,1838.629195
996.731950,-3849.070898,-8956.491898,1915.238745
996.732263,-3923.091493,-8438.347739,1455.581446
996.732576,-3849.070898,-8068.244768,229.828649
996.732889,-3478.967927,-7920.203579,766.095498
996.733202,-4071.132681,-9030.512492,1455.581446
996.733515,-3627.009116,-8364.327145,842.705048
996.733828,-3627.009116,-8660.409521,1455.581446
996.734140,-3478.967927,-8882.471304,1532.190996
996.734453,-2960.823768,-9326.594869,1302.362347
996.734766,-2072.576638,-8882.471304,1455.581446
996.735079,-2294.638420,-9548.656652,2451.505594
996.735392,-2738.761985,-8882.471304,2451.505594
996.735705,-3108.864956,-9030.512492,2221.676944
996.736018,-3330.926739,-8734.430116,1838.629195
996.736331,-3849.070898,-8734.430116,1302.362347
996.736644,-3627.009116,-8216.285956,0.000000
996.736957,-4219.173869,-7772.162391,0.000000
996.737270,-4737.318029,-7846.182985,383.047749
996.737583,-4811.338623,-7402.059420,459.657299
996.737896,-3997.112087,-8068.244768,0.000000
996.738209,-3997.112087,-8512.368333,459.657299
996.738521,-3923.091493,-8882.471304,306.438199
996.738834,-2812.782580,-9252.574275,536.266849
996.739147,-2738.761985,-9326.594869,383.047749
996.739460,-3034.844362,-9770.718434,1991.848295
996.739773,-2812.782580,-9326.594869,612.876398
996.740086,-2516.700203,-8882.471304,995.924147
996.740399,-3478.967927,-9400.615463,919.314598
996.740712,-3627.009116,-8956.491898,229.828649
996.741025,-3849.070898,-8808.450710,0.000000
996.741338,-5255.462188,-7846.182985,-229.828649
996.741651,-4811.338623,-8216.285956,-153.219100
996.741964,-4959.379811,-8364.327145,-612.876398
996.742277,-4367.215058,-8216.285956,-842.705048
996.742590,-4885.359217,-8142.265362,-766.095498
996.742902,-3923.091493,-8808.450710,-1149.143247
996.743215,-3108.864956,-8882.471304,-1302.362347
996.743528,-3108.864956,-9548.656652,459.657299
996.743841,-3330.926739,-9770.718434,1225.752797
996.744154,-2368.659014,-10066.800811,459.657299
996.744467,-2368.659014,-9622.677246,612.876398
996.744780,-3478.967927,-9844.739029,766.095498
996.745093,-2590.720797,-8734.430116,-383.047749
996.745406,-3552.988522,-9030.512492,-612.876398
996.745719,-4145.153275,-8882.471304,-229.828649
996.746032,-4293.194464,-8808.450710,-919.314598
996.746345,-3404.947333,-7994.224174,-1762.019645
996.746658,-4515.256246,-8882.471304,-1225.752797
996.746971,-4293.194464,-8882.471304,-919.314598
996.747284,-3034.844362,-9252.574275,-1072.533697
996.747596,-3108.864956,-8438.347739,0.000000
996.747909,-3923.091493,-9548.656652,1072.533697
996.748222,-2886.803174,-9844.739029,153.219100
996.748535,-2368.659014,-9844.739029,306.438199
996.748848,-3478.967927,-9104.533087,919.314598
996.749161,-3404.947333,-9030.512492,1072.533697
996.749474,-2516.700203,-8586.388927,-306.438199
996.749787,-4071.132681,-8586.388927,306.438199
996.750100,-4589.276840,-8216.285956,76.609550
996.750413,-3849.070898,-8882.471304,-383.047749
996.750726,-3627.009116,-8216.285956,76.609550
996.751039,-4367.215058,-8216.285956,766.095498
996.751352,-3775.050304,-8660.409521,0.000000
996.751665,-3478.967927,-8586.388927,-383.047749
996.751977,-3256.906145,-8290.306550,-229.828649
996.752290,-3108.864956,-8660.409521,842.705048
996.752603,-2886.803174,-9104.533087,1149.143247
996.752916,-3627.009116,-9104.533087,1915.238745
996.753229,-4219.173869,-9548.656652,2451.505594
996.753542,-3478.967927,-8660.409521,1455.581446
996.753855,-3997.112087,-8216.285956,536.266849
996.754168,-4219.173869,-7920.203579,229.828649
996.754481,-4219.173869,-8068.244768,229.828649
996.754794,-3627.009116,-7476.080014,-689.485948
996.755107,-3997.112087,-7698.141797,536.266849
996.755420,-4219.173869,-7920.203579,995.924147
996.755733,-3478.967927,-8956.491898,1302.362347
996.756046,-2516.700203,-9104.533087,919.314598
996.756358,-2590.720797,-10362.883188,2834.553343
996.756671,-2812.782580,-9770.718434,2911.162892
996.756984,-3478.967927,-9548.656652,2911.162892
996.757297,-2664.741391,-9400.615463,3064.381992
996.757610,-3404.947333,-9770.718434,2068.457845
996.757923,-3256.906145,-8586.388927,689.485948
996.758236,-4219.173869,-7624.121203,0.000000
996.758549,-4589.276840,-7328.038826,612.876398
996.758862,-4071.132681,-7772.162391,153.219100
996.759175,-3182.885551,-6883.915261,842.705048
996.759488,-3849.070898,-7328.038826,1532.190996
996.759801,-4071.132681,-7846.182985,1455.581446
996.760114,-2960.823768,-8512.368333,536.266849
996.760427,-2664.741391,-8808.450710,-153.219100
996.760739,-3182.885551,-9400.615463,919.314598
996.761052,-3256.906145,-9844.739029,1302.362347
996.761365,-2664.741391,-10140.821405,1762.019645
996.761678,-3478.967927,-10510.924376,2145.067394
996.761991,-3775.050304,-10288.862594,1455.581446
996.762304,-3552.988522,-9474.636058,842.705048
996.762617,-4145.153275,-8660.409521,919.314598
996.762930,-3997.112087,-8734.430116,536.266849
996.763243,-3256.906145,-7179.997637,-1149.143247
996.763556,-3478.967927,-7105.977043,0.000000
996.763869,-4219.173869,-6809.894666,-612.876398
996.764182,-3627.009116,-6809.894666,-919.314598
996.764495,-2368.659014,-7402.059420,-995.924147
996.764808,-3627.009116,-9104.533087,536.266849
996.765120,-3552.988522,-9474.636058,1455.581446
996.765433,-3330.926739,-10362.883188,1455.581446
996.765746,-3775.050304,-10214.842000,2374.896044
996.766059,-4367.215058,-9918.759623,1685.410096
996.766372,-3330.926739,-9622.677246,229.828649
996.766685,-4515.256246,-9548.656652,-1149.143247
996.766998,-4737.318029,-8734.430116,-995.924147
996.767311,-4219.173869,-8512.368333,-1149.143247
996.767624,-3775.050304,-7402.059420,-919.314598
996.767937,-4145.153275,-7994.224174,0.000000
996.768250,-3478.967927,-8142.265362,76.609550
996.768563,-3034.844362,-8586.388927,-229.828649
996.768876,-3182.885551,-8734.430116,-383.047749
996.769189,-3627.009116,-9030.512492,1072.533697
996.769502,-2886.803174,-8956.491898,229.828649
996.769814,-2960.823768,-9622.677246,459.657299
996.770127,-3701.029710,-10066.800811,842.705048
996.770440,-3923.091493,-9696.697840,306.438199
996.770753,-3627.009116,-9178.553681,-306.438199
996.771066,-4367.215058,-8956.491898,1072.533697
996.771379,-4737.318029,-9474.636058,0.000000
996.771692,-4071.132681,-8512.368333,-536.266849
996.772005,-3552.988522,-8142.265362,0.000000
996.772318,-3923.091493,-8290.306550,0.000000
996.772631,-3552.988522,-8660.409521,-383.047749
996.772943,-3108.864956,-8216.285956,-995.924147
996.773256,-3034.844362,-8068.244768,0.000000
996.773569,-2738.761985,-8660.409521,689.485948
996.773882,-2812.782580,-8660.409521,612.876398
996.774195,-2960.823768,-8216.285956,995.924147
996.774508,-4145.153275,-9474.636058,1532.190996
996.774821,-3478.967927,-9548.656652,919.314598
996.775134,-3627.009116,-9030.512492,306.438199
996.775447,-4145.153275,-8216.285956,459.657299
996.775760,-4515.256246,-8512.368333,0.000000
996.776073,-3330.926739,-7772.162391,-1225.752797
996.776385,-3627.009116,-8068.244768,-1149.143247
996.776698,-4071.132681,-7698.141797,-306.438199
996.777011,-3330.926739,-8438.347739,-919.314598
996.777324,-2812.782580,-8882.471304,0.000000
996.777637,-3552.988522,-9770.718434,1685.410096
996.777950,-2738.761985,-8956.491898,1072.533697
996.778263,-2368.659014,-9400.615463,1149.143247
996.778576,-4071.132681,-9252.574275,1685.410096
996.778889,-3701.029710,-8956.491898,306.438199
996.779202,-2960.823768,-8512.368333,-612.876398
996.779515,-4589.276840,-8290.306550,-153.219100
996.779827,-5033.400406,-8364.327145,153.219100
996.780140,-4219.173869,-8882.471304,-383.047749
996.780453,-3552.988522,-8660.409521,-229.828649
996.780766,-4367.215058,-8808.450710,842.705048
996.781079,-4219.173869,-9030.512492,995.924147
996.781392,-2664.741391,-8512.368333,76.609550
996.781705,-2590.720797,-8364.327145,536.266849
996.782018,-3034.844362,-9474.636058,1302.362347
996.782331,-2664.741391,-9178.553681,842.705048
996.782644,-3108.864956,-9178.553681,1302.362347
996.782956,-3627.009116,-9548.656652,1455.581446
996.783269,-3849.070898,-9030.512492,229.828649
996.783582,-4367.215058,-8882.471304,995.924147
996.783895,-4811.338623,-8660.409521,536.266849
996.784208,-4663.297435,-9030.512492,383.047749
996.784521,-4145.153275,-8216.285956,-459.657299
996.784834,-4811.338623,-8512.368333,0.000000
996.785147,-4663.297435,-8290.306550,306.438199
996.785460,-3627.009116,-9030.512492,0.000000
996.785773,-2516.700203,-8660.409521,0.000000
996.786086,-3404.947333,-9474.636058,1455.581446
996.786398,-2590.720797,-9326.594869,1608.800546
996.786711,-2220.617826,-9400.615463,1838.629195
996.787024,-2220.617826,-9178.553681,1685.410096
996.787337,-2812.782580,-9770.718434,1378.971896
996.787650,-2590.720797,-8734.430116,766.095498
996.787963,-4071.132681,-8364.327145,842.705048
996.788276,-4145.153275,-8142.265362,153.219100
996.788589,-3849.070898,-8438.347739,-153.219100
996.788902,-4219.173869,-8290.306550,-842.705048
996.789215,-5107.421000,-8586.388927,536.266849
996.789528,-4737.318029,-8586.388927,536.266849
996.789840,-3627.009116,-8882.471304,459.657299
996.790153,-3775.050304,-9104.533087,612.876398
996.790466,-3182.885551,-9252.574275,1608.800546
996.790779,-2886.803174,-9474.636058,1225.752797
996.791092,-2294.638420,-8660.409521,306.438199
996.791405,-2664.741391,-8882.471304,842.705048
996.791718,-3256.906145,-8290.306550,689.485948
996.792031,-3330.926739,-8364.327145,689.485948
996.792344,-3775.050304,-7624.121203,536.266849
996.792657,-3997.112087,-8216.285956,766.095498
996.792969,-4071.132681,-7994.224174,536.266849
996.793282,-3923.091493,-8734.430116,-229.828649
996.793595,-5033.400406,-8364.327145,0.000000
996.793908,-4737.318029,-8882.471304,76.609550
996.794221,-3701.029710,-8956.491898,-536.266849
996.794534,-3849.070898,-9770.718434,459.657299
996.794847,-3478.967927,-9474.636058,842.705048
996.795160,-3404.947333,-9474.636058,1072.533697
996.795473,-2812.782580,-9326.594869,1149.143247
996.795786,-3478.967927,-9326.594869,1685.410096
996.796099,-2812.782580,-8438.347739,766.095498
996.796411,-3330.926739,-9030.512492,229.828649
996.796724,-3627.009116,-8068.244768,689.485948
996.797037,-3552.988522,-7994.224174,76.609550
996.797350,-3330.926739,-7920.203579,-229.828649
996.797663,-4441.235652,-8438.347739,0.000000
996.797976,-4515.256246,-8364.327145,1225.752797
996.798289,-3997.112087,-8808.450710,536.266849
996.798602,-3923.091493,-8216.285956,383.047749
996.798915,-4071.132681,-9474.636058,1149.143247
996.799228,-3552.988522,-9770.718434,459.657299
996.799541,-3701.029710,-9622.677246,842.705048
996.799853,-3404.947333,-9770.718434,306.438199
996.800166,-2886.803174,-9474.636058,0.000000
996.800479,-3330.926739,-8586.388927,-459.657299
996.800792,-3256.906145,-8512.368333,536.266849
996.801105,-2886.803174,-9104.533087,306.438199
996.801418,-2960.823768,-8586.388927,0.000000
996.801731,-3182.885551,-8808.450710,0.000000
996.802044,-3552.988522,-9178.553681,842.705048
996.802357,-3330.926739,-9104.533087,766.095498
996.802670,-2442.679609,-8586.388927,383.047749
996.802982,-2960.823768,-9104.533087,1455.581446
996.803295,-3552.988522,-8808.450710,2298.286494
996.803608,-3849.070898,-8808.450710,383.047749
996.803921,-3849.070898,-8512.368333,766.095498
996.804234,-4737.318029,-9030.512492,383.047749
996.804547,-4293.194464,-8660.409521,-459.657299
996.804860,-4441.235652,-8586.388927,-536.266849
996.805173,-4589.276840,-8438.347739,229.828649
996.805486,-4737.318029,-8216.285956,229.828649
996.805799,-4145.153275,-8512.368333,-459.657299
996.806112,-3701.029710,-8956.491898,-383.047749
996.806424,-3849.070898,-8660.409521,766.095498
996.806737,-3034.844362,-9474.636058,1302.362347
996.807050,-2590.720797,-9178.553681,1608.800546
996.807363,-3256.906145,-9622.677246,2681.334243
996.807676,-2886.803174,-9104.533087,2528.115143
996.807989,-3108.864956,-9548.656652,2604.724693
996.808302,-3627.009116,-8660.409521,1455.581446
996.808615,-3627.009116,-8290.306550,1149.143247
996.808928,-3404.947333,-7994.224174,229.828649
996.809241,-4515.256246,-7846.182985,612.876398
996.809554,-4811.338623,-8142.265362,766.095498
996.809866,-4293.194464,-8512.368333,153.219100
996.810179,-3627.009116,-8216.285956,612.876398
996.810492,-3849.070898,-9030.512492,1072.533697
996.810805,-3775.050304,-9178.553681,1762.019645
996.811118,-2664.741391,-9104.533087,995.924147
996.811431,-2442.679609,-9178.553681,2451.505594
996.811744,-2960.823768,-9622.677246,3294.210641
996.812057,-3034.844362,-9696.697840,2451.505594
996.812370,-2664.741391,-9400.615463,2604.724693
996.812683,-3478.967927,-9104.533087,2987.772442
996.812996,-3034.844362,-8364.327145,1378.971896
996.813308,-3256.906145,-8216.285956,1762.019645
996.813621,-4515.256246,-7994.224174,1608.800546
996.813934,-4515.256246,-7994.224174,1455.581446
996.814247,-3775.050304,-7624.121203,612.876398
996.814560,-4071.132681,-8290.306550,1302.362347
996.814873,-3775.050304,-8216.285956,1762.019645
996.815186,-3478.967927,-8808.450710,1685.410096
996.815499,-2664.741391,-8956.491898,2298.286494
996.815812,-2664.741391,-9696.697840,3294.210641
996.816125,-2294.638420,-9474.636058,2681.334243
996.816437,-2590.720797,-9474.636058,2911.162892
996.816750,-3182.885551,-9400.615463,2987.772442
996.817063,-3108.864956,-9696.697840,2911.162892
996.817376,-2516.700203,-8586.388927,2451.505594
996.817689,-4663.297435,-7920.203579,2834.553343
996.818002,-4293.194464,-7846.182985,2068.457845
996.818315,-4219.173869,-8068.244768,842.705048
996.818628,-3849.070898,-7476.080014,153.219100
996.818941,-4293.194464,-7698.141797,842.705048
996.819254,-4367.215058,-7920.203579,1225.752797
996.819567,-3775.050304,-8364.327145,1378.971896
996.819879,-3552.988522,-8216.285956,1762.019645
996.820192,-3330.926739,-9400.615463,2528.115143
996.820505,-3330.926739,-9770.718434,2451.505594
996.820818,-3701.029710,-8956.491898,2681.334243
996.821131,-3997.112087,-9474.636058,2681.334243
996.821444,-3775.050304,-8882.471304,1915.238745
996.821757,-3997.112087,-8660.409521,1302.362347
996.822070,-4737.318029,-7994.224174,1149.143247
996.822383,-4589.276840,-8512.368333,612.876398
996.822696,-3923.091493,-7846.182985,0.000000
996.823009,-3701.029710,-8068.244768,0.000000
996.823321,-4071.132681,-8216.285956,536.266849
996.823634,-3552.988522,-8734.430116,766.095498
996.823947,-2960.823768,-8808.450710,766.095498
996.824260,-2738.761985,-9918.759623,1455.581446
996.824573,-2590.720797,-9178.553681,1455.581446
996.824886,-2442.679609,-9474.636058,1378.971896
996.825199,-3256.906145,-8734.430116,1762.019645
996.825512,-3627.009116,-9844.739029,1378.971896
996.825825,-2960.823768,-8956.491898,689.485948
996.826138,-4071.132681,-8660.409521,766.095498
996.826450,-4441.235652,-8512.368333,689.485948
996.826763,-4071.132681,-8882.471304,0.000000
996.827076,-3627.009116,-7476.080014,-153.219100
996.827389,-3478.967927,-9104.533087,459.657299
996.827702,-3108.864956,-8364.327145,1302.362347
996.828015,-2812.782580,-8438.347739,919.314598
996.828328,-2368.659014,-8586.388927,306.438199
996.828641,-2812.782580,-9548.656652,1149.143247
996.828954,-2368.659014,-9400.615463,842.705048
996.829267,-2738.761985,-9400.615463,1532.190996
996.829580,-3108.864956,-9326.594869,1532.190996
996.829892,-3627.009116,-9326.594869,1149.143247
996.830205,-3701.029710,-9104.533087,459.657299
996.830518,-5403.503377,-8734.430116,842.705048
996.830831,-4663.297435,-8734.430116,153.219100
996.831144,-4589.276840,-8734.430116,-612.876398
996.831457,-4293.194464,-8512.368333,-229.828649
996.831770,-4885.359217,-8586.388927,383.047749
996.832083,-3627.009116,-8512.368333,919.314598
996.832396,-3404.947333,-7994.224174,689.485948
996.832709,-2664.741391,-8882.471304,1532.190996
996.833022,-2368.659014,-9252.574275,1991.848295
996.833334,-2664.741391,-9030.512492,1378.971896
996.833647,-2664.741391,-8882.471304,2068.457845
996.833960,-3701.029710,-9326.594869,2451.505594
996.834273,-2738.761985,-8660.409521,1455.581446
996.834586,-4367.215058,-8882.471304,1072.533697
996.834899,-4515.256246,-8808.450710,612.876398
996.835212,-4293.194464,-8586.388927,153.219100
996.835525,-4441.235652,-8438.347739,229.828649
996.835838,-4959.379811,-8438.347739,766.095498
996.836151,-4515.256246,-8586.388927,1072.533697
996.836463,-3997.112087,-9326.594869,1762.019645
996.836776,-3330.926739,-8290.306550,995.924147
996.837089,-2738.761985,-8734.430116,2374.896044
996.837402,-3034.844362,-9474.636058,2145.067394
996.837715,-2664.741391,-8956.491898,2221.676944
996.838028,-2664.741391,-8438.347739,2604.724693
996.838341,-2886.803174,-9030.512492,2298.286494
996.838654,-3330.926739,-8956.491898,1685.410096
996.838967,-4145.153275,-8216.285956,1225.752797
996.839280,-3997.112087,-8216.285956,1072.533697
996.839593,-3701.029710,-8512.368333,612.876398
996.839905,-3627.009116,-9178.553681,1991.848295
996.840218,-4071.132681,-8734.430116,1532.190996
996.840531,-3923.091493,-8364.327145,2145.067394
996.840844,-3034.844362,-8660.409521,1915.238745
996.841157,-2738.761985,-9400.615463,1838.629195
996.841470,-2886.803174,-9326.594869,1991.848295
996.841783,-2960.823768,-9030.512492,2298.286494
996.842096,-3034.844362,-8364.327145,2451.505594
996.842409,-3478.967927,-8364.327145,3524.039291
996.842722,-3404.947333,-7846.182985,2221.676944
996.843035,-3701.029710,-8216.285956,1225.752797
996.843347,-4367.215058,-8364.327145,919.314598
996.843660,-4589.276840,-8512.368333,1072.533697
996.843973,-3330.926739,-7476.080014,612.876398
996.844286,-4145.153275,-8216.285956,2757.943793
996.844599,-4441.235652,-8882.471304,2681.334243
996.844912,-3923.091493,-8956.491898,1685.410096
996.845225,-2516.700203,-8734.430116,1302.362347
996.845538,-3108.864956,-9326.594869,1302.362347
996.845851,-2812.782580,-8956.491898,1302.362347
996.846164,-3034.844362,-9178.553681,1685.410096
996.846476,-2886.803174,-8808.450710,1838.629195
996.846789,-3627.009116,-8882.471304,2221.676944
996.847102,-3330.926739,-9104.533087,1532.190996
996.847415,-5107.421000,-9104.533087,1838.629195
996.847728,-4811.338623,-8882.471304,1378.971896
996.848041,-4145.153275,-8808.450710,76.609550
996.848354,-3997.112087,-7920.203579,0.000000
996.848667,-4737.318029,-8216.285956,995.924147
996.848980,-3997.112087,-8734.430116,383.047749
996.849293,-2590.720797,-8660.409521,76.609550
996.849606,-2442.679609,-8142.265362,1072.533697
996.849918,-2812.782580,-8586.388927,2451.505594
996.850231,-2442.679609,-9474.636058,2298.286494
996.850544,-2664.741391,-9548.656652,1991.848295
996.850857,-3478.967927,-9474.636058,1762.019645
996.851170,-3701.029710,-8660.409521,612.876398
996.851483,-4071.132681,-9178.553681,766.095498
996.851796,-4811.338623,-8290.306550,-153.219100
996.852109,-4219.173869,-8956.491898,-383.047749
996.852422,-4071.132681,-8734.430116,-1149.143247
996.852735,-4811.338623,-8660.409521,153.219100
996.853048,-4589.276840,-8882.471304,536.266849
996.853360,-3182.885551,-9548.656652,229.828649
996.853673,-2220.617826,-8808.450710,306.438199
996.853986,-3034.844362,-9030.512492,1838.629195
996.854299,-2368.659014,-8808.450710,1685.410096
996.854612,-2220.617826,-8956.491898,995.924147
996.854925,-2442.679609,-8660.409521,995.924147
996.855238,-3256.906145,-9696.697840,995.924147
996.855551,-3256.906145,-9252.574275,842.705048
996.855864,-4515.256246,-8660.409521,1149.143247
996.856177,-4663.297435,-8660.409521,1532.190996
996.856489,-4293.194464,-9326.594869,612.876398
996.856802,-4367.215058,-9104.533087,-153.219100
996.857115,-4663.297435,-7920.203579,842.705048
996.857428,-3849.070898,-8068.244768,0.000000
996.857741,-2960.823768,-8660.409521,459.657299
996.858054,-3256.906145,-8438.347739,766.095498
996.858367,-3478.967927,-9030.512492,2145.067394
996.858680,-2886.803174,-9252.574275,1915.238745
996.858993,-3108.864956,-9696.697840,1915.238745
996.859306,-3404.947333,-9844.739029,2604.724693
996.859619,-3256.906145,-9104.533087,2221.676944
996.859931,-3849.070898,-9104.533087,1838.629195
996.860244,-4663.297435,-8364.327145,1149.143247
996.860557,-3849.070898,-8512.368333,536.266849
996.860870,-3997.112087,-8512.368333,0.000000
996.861183,-4441.235652,-8512.368333,229.828649
996.861496,-4071.132681,-7698.141797,1532.190996
996.861809,-3478.967927,-8290.306550,2528.115143
996.862122,-3108.864956,-8068.244768,1915.238745
996.862435,-3034.844362,-9548.656652,2757.943793
996.862748,-3330.926739,-9030.512492,2528.115143
996.863061,-3182.885551,-8660.409521,2145.067394
996.863373,-2886.803174,-8734.430116,2221.676944
996.863686,-3923.091493,-9474.636058,2374.896044
996.863999,-3552.988522,-8586.388927,153.219100
996.864312,-4515.256246,-8068.244768,1302.362347
996.864625,-3923.091493,-8364.327145,1838.629195
996.864938,-3923.091493,-8882.471304,1762.019645
996.865251,-3552.988522,-7846.182985,1532.190996
996.865564,-4071.132681,-8438.347739,2221.676944
996.865877,-3552.988522,-8512.368333,1762.019645
996.866190,-2812.782580,-8068.244768,1685.410096
996.866502,-1776.494261,-7920.203579,1991.848295
996.866815,-3552.988522,-9104.533087,3294.210641
996.867128,-2664.741391,-9030.512492,1915.238745
996.867441,-2146.597232,-9030.512492,1685.410096
996.867754,-3478.967927,-8438.347739,2604.724693
996.868067,-4071.132681,-9474.636058,2911.162892
996.868380,-3108.864956,-8808.450710,1532.190996
996.868693,-4219.173869,-8734.430116,1991.848295
996.869006,-4737.318029,-8068.244768,1915.238745
996.869319,-3404.947333,-8586.388927,919.314598
996.869632,-3923.091493,-8660.409521,1455.581446
996.869944,-4293.194464,-8364.327145,1685.410096
996.870257,-3182.885551,-8290.306550,842.705048
996.870570,-2960.823768,-8882.471304,1072.533697
996.870883,-3404.947333,-8586.388927,1915.238745
996.871196,-2664.741391,-9178.553681,2987.772442
996.871509,-2220.617826,-9400.615463,2757.943793
996.871822,-2886.803174,-8660.409521,2604.724693
996.872135,-4589.276840,-9252.574275,2987.772442
996.872448,-3849.070898,-8438.347739,995.924147
996.872761,-3701.029710,-8512.368333,153.219100
996.873074,-4811.338623,-8290.306550,0.000000
996.873386,-4737.318029,-8216.285956,0.000000
996.873699,-3775.050304,-7624.121203,0.000000
996.874012,-5033.400406,-8512.368333,766.095498
996.874325,-3923.091493,-9178.553681,1072.533697
996.874638,-3330.926739,-9622.677246,842.705048
996.874951,-2590.720797,-9030.512492,1225.752797
996.875264,-2960.823768,-9622.677246,1608.800546
996.875577,-2368.659014,-9252.574275,1302.362347
996.875890,-2368.659014,-9030.512492,689.485948
996.876203,-2368.659014,-8734.430116,1532.190996
996.876515,-3256.906145,-8882.471304,919.314598
996.876828,-3330.926739,-9030.512492,383.047749
996.877141,-4441.235652,-8734.430116,612.876398
996.877454,-4367.215058,-8956.491898,689.485948
996.877767,-4145.153275,-9104.533087,459.657299
996.878080,-4737.318029,-8734.430116,612.876398
996.878393,-4737.318029,-7994.224174,536.266849
996.878706,-3775.050304,-8438.347739,-229.828649
996.879019,-3256.906145,-8882.471304,536.266849
996.879332,-3627.009116,-8956.491898,0.000000
996.879644,-2960.823768,-8956.491898,766.095498
996.879957,-2590.720797,-9252.574275,995.924147
996.880270,-2590.720797,-9104.533087,1608.800546
996.880583,-2886.803174,-9844.739029,2221.676944
996.880896,-2516.700203,-9104.533087,1072.533697
996.881209,-3256.906145,-9252.574275,1838.629195
996.881522,-3775.050304,-8586.388927,995.924147
996.881835,-3849.070898,-9030.512492,766.095498
996.882148,-3923.091493,-8438.347739,76.609550
996.882461,-4219.173869,-8438.347739,459.657299
996.882773,-4367.215058,-8364.327145,766.095498
996.883086,-3552.988522,-8956.491898,689.485948
996.883399,-3034.844362,-9104.533087,229.828649
996.883712,-3330.926739,-9326.594869,2451.505594
996.884025,-3404.947333,-9030.512492,2221.676944
996.884338,-3108.864956,-9030.512492,1915.238745
996.884651,-3256.906145,-8438.347739,1838.629195
996.884964,-3923.091493,-9030.512492,1838.629195
996.885277,-3330.926739,-8512.368333,766.095498
996.885590,-4441.235652,-8216.285956,459.657299
996.885902,-4367.215058,-8586.388927,1532.190996
996.886215,-3997.112087,-8660.409521,383.047749
996.886528,-3552.988522,-8216.285956,1225.752797
996.886841,-3997.112087,-8808.450710,1991.848295
996.887154,-3552.988522,-8882.471304,1915.238745
996.887467,-2812.782580,-9326.594869,1455.581446
996.887780,-2664.741391,-9030.512492,2068.457845
996.888093,-3182.885551,-9252.574275,2451.505594
996.888406,-2812.782580,-8438.347739,1991.848295
996.888719,-2516.700203,-8882.471304,2298.286494
996.889032,-3478.967927,-8734.430116,2221.676944
996.889344,-3775.050304,-8586.388927,1685.410096
996.889657,-3997.112087,-8512.368333,1149.143247
996.889970,-4589.276840,-8364.327145,1455.581446
996.890283,-3849.070898,-8216.285956,1455.581446
996.890596,-3330.926739,-8142.265362,1149.143247
996.890909,-4145.153275,-8290.306550,1685.410096
996.891222,-3997.112087,-8660.409521,1608.800546
996.891535,-3182.885551,-8808.450710,1149.143247
996.891848,-2590.720797,-8586.388927,1225.752797
996.892161,-2664.741391,-9696.697840,2145.067394
996.892473,-2590.720797,-9474.636058,2451.505594
996.892786,-2368.659014,-9252.574275,2451.505594
996.893099,-2590.720797,-9178.553681,2987.772442
996.893412,-3330.926739,-9770.718434,3064.381992
996.893725,-3034.844362,-8512.368333,1762.019645
996.894038,-3923.091493,-8142.265362,1225.752797
996.894351,-4737.318029,-8068.244768,1378.971896
996.894664,-4737.318029,-8364.327145,842.705048
996.894977,-4737.318029,-7772.162391,306.438199
996.895290,-4811.338623,-7846.182985,842.705048
996.895602,-4589.276840,-8142.265362,995.924147
996.895915,-3701.029710,-8956.491898,689.485948
996.896228,-3627.009116,-8808.450710,1302.362347
996.896541,-3701.029710,-9770.718434,2451.505594
996.896854,-2960.823768,-9400.615463,1991.848295
996.897167,-2664.741391,-9252.574275,2145.067394
996.897480,-2886.803174,-8808.450710,2374.896044
996.897793,-3182.885551,-8882.471304,1149.143247
996.898106,-3108.864956,-7920.203579,229.828649
996.898419,-4515.256246,-7698.141797,306.438199
996.898731,-4663.297435,-8068.244768,76.609550
996.899044,-4145.153275,-8142.265362,-842.705048
996.899357,-4293.194464,-8364.327145,-229.828649
996.899670,-5329.482782,-8512.368333,536.266849
996.899983,-4367.215058,-8660.409521,76.609550
996.900296,-3330.926739,-9030.512492,-689.485948
996.900609,-3552.988522,-8808.450710,-383.047749
996.900922,-3256.906145,-9474.636058,229.828649
996.901235,-2516.700203,-9400.615463,459.657299
996.901548,-2220.617826,-9104.533087,689.485948
996.901860,-2664.741391,-9252.574275,612.876398
996.902173,-2590.720797,-8660.409521,0.000000
996.902486,-3034.844362,-9252.574275,-766.095498
996.902799,-3923.091493,-8808.450710,-842.705048
996.903112,-3478.967927,-8734.430116,-536.266849
996.903425,-3108.864956,-8068.244768,-1225.752797
996.903738,-4589.276840,-8734.430116,0.000000
996.904051,-4293.194464,-9104.533087,-383.047749
996.904364,-3627.009116,-9400.615463,-1685.410096
996.904677,-3330.926739,-9326.594869,-1762.019645
996.904989,-4293.194464,-9918.759623,-536.266849
996.905302,-3404.947333,-9252.574275,383.047749
996.905615,-3034.844362,-9548.656652,536.266849
996.905928,-3552.988522,-9474.636058,229.828649
996.906241,-4145.153275,-9770.718434,0.000000
996.906554,-3627.009116,-9030.512492,-1149.143247
996.906867,-4441.235652,-8808.450710,-1149.143247
996.907180,-3923.091493,-8068.244768,-1455.581446
996.907493,-3849.070898,-8586.388927,-1302.362347
996.907806,-3775.050304,-8808.450710,-1608.800546
996.908119,-4071.132681,-8586.388927,0.000000
996.908431,-3478.967927,-9104.533087,-306.438199
996.908744,-2738.761985,-9474.636058,0.000000
996.909057,-2590.720797,-9474.636058,229.828649
996.909370,-3108.864956,-9770.718434,1455.581446
996.909683,-3478.967927,-9252.574275,1149.143247
996.909996,-3256.906145,-9474.636058,1762.019645
996.910309,-4219.173869,-9252.574275,842.705048
996.910622,-4219.173869,-8364.327145,0.000000
996.910935,-4737.318029,-8364.327145,-459.657299
996.911248,-5477.523971,-7994.224174,-459.657299
996.911560,-4441.235652,-8142.265362,-612.876398
996.911873,-3923.091493,-7624.121203,-689.485948
996.912186,-4737.318029,-7624.121203,612.876398
996.912499,-5033.400406,-7846.182985,766.095498
996.912812,-3627.009116,-8882.471304,1072.533697
996.913125,-2294.638420,-8882.471304,766.095498
996.913438,-2664.741391,-9770.718434,2145.067394
996.913751,-3108.864956,-9548.656652,2451.505594
996.914064,-2812.782580,-9400.615463,2221.676944
996.914377,-2220.617826,-8956.491898,1838.629195
996.914689,-2738.761985,-9326.594869,1915.238745
996.915002,-2886.803174,-8734.430116,612.876398
996.915315,-4219.173869,-8290.306550,689.485948
996.915628,-4737.318029,-7772.162391,1302.362347
996.915941,-3849.070898,-8290.306550,459.657299
996.916254,-3627.009116,-7920.203579,536.266849
996.916567,-4293.194464,-7920.203579,1378.971896
996.916880,-3775.050304,-7550.100608,1838.629195
996.917193,-2812.782580,-8290.306550,995.924147
996.917506,-3034.844362,-8290.306550,1302.362347
996.917818,-2960.823768,-9770.718434,2298.286494
996.918131,-2812.782580,-9548.656652,2068.457845
996.918444,-2812.782580,-9326.594869,2374.896044
996.918757,-3108.864956,-9400.615463,2834.553343
996.919070,-2812.782580,-9474.636058,2451.505594
996.919383,-2960.823768,-8660.409521,1838.629195
996.919696,-3849.070898,-8364.327145,1608.800546
996.920009,-3775.050304,-8142.265362,1915.238745
996.920322,-4071.132681,-8068.244768,153.219100
996.920635,-3849.070898,-7994.224174,229.828649
996.920947,-4219.173869,-8068.244768,612.876398
996.921260,-3923.091493,-8068.244768,459.657299
996.921573,-3182.885551,-8364.327145,153.219100
996.921886,-3404.947333,-8734.430116,995.924147
996.922199,-3034.844362,-9474.636058,1072.533697
996.922512,-2812.782580,-9326.594869,1455.581446
996.922825,-2960.823768,-9030.512492,1915.238745
996.923138,-3627.009116,-9696.697840,1838.629195
996.923451,-3182.885551,-8882.471304,689.485948
996.923764,-3552.988522,-9030.512492,306.438199
996.924077,-4441.235652,-8808.450710,153.219100
996.924389,-3923.091493,-8216.285956,-766.095498
996.924702,-3775.050304,-7846.182985,-995.924147
996.925015,-4293.194464,-8734.430116,-229.828649
996.925328,-3627.009116,-8512.368333,229.828649
996.925641,-3923.091493,-9178.553681,0.000000
996.925954,-3552.988522,-8734.430116,-229.828649
996.926267,-3552.988522,-9474.636058,229.828649
996.926580,-3256.906145,-9474.636058,76.609550
996.926893,-3849.070898,-9104.533087,459.657299
996.927206,-3627.009116,-8660.409521,229.828649
996.927518,-3627.009116,-9622.677246,229.828649
996.927831,-3923.091493,-9104.533087,-1072.533697
996.928144,-4219.173869,-8290.306550,-1072.533697
996.928457,-4145.153275,-8956.491898,-536.266849
996.928770,-4145.153275,-9474.636058,-1149.143247
996.929083,-3404.947333,-9104.533087,-1378.971896
996.929396,-4367.215058,-8808.450710,0.000000
996.929709,-3923.091493,-9474.636058,76.609550
996.930022,-2664.741391,-9622.677246,-1149.143247
996.930335,-2516.700203,-9622.677246,-612.876398
996.930647,-2664.741391,-9178.553681,306.438199
996.930960,-2738.761985,-9474.636058,0.000000
996.931273,-2812.782580,-9474.636058,0.000000
996.931586,-3701.029710,-9326.594869,153.219100
996.931899,-4071.132681,-8364.327145,536.266849
996.932212,-4145.153275,-8808.450710,-306.438199
996.932525,-4589.276840,-7994.224174,-229.828649
996.932838,-4515.256246,-8660.409521,-842.705048
996.933151,-4441.235652,-8290.306550,-1685.410096
996.933464,-4589.276840,-8438.347739,-612.876398
996.933776,-4515.256246,-8364.327145,459.657299
996.934089,-3627.009116,-8882.471304,0.000000
996.934402,-2738.761985,-8586.388927,0.000000
996.934715,-3034.844362,-10436.903782,1378.971896
996.935028,-2590.720797,-9030.512492,689.485948
996.935341,-2146.597232,-8734.430116,689.485948
996.935654,-2294.638420,-9178.553681,1455.581446
996.935967,-3034.844362,-9844.739029,1455.581446
996.936280,-3330.926739,-8808.450710,1302.362347
996.936593,-4885.359217,-8734.430116,1915.238745
996.936905,-4589.276840,-8364.327145,1225.752797
996.937218,-4737.318029,-8808.450710,-306.438199
996.937531,-4589.276840,-7846.182985,-459.657299
996.937844,-4663.297435,-7624.121203,229.828649
996.938157,-4219.173869,-7624.121203,0.000000
996.938470,-3404.947333,-7994.224174,0.000000
996.938783,-3404.947333,-7846.182985,689.485948
996.939096,-3108.864956,-9252.574275,2604.724693
996.939409,-2590.720797,-9326.594869,1455.581446
996.939722,-2812.782580,-9104.533087,2911.162892
996.940034,-3627.009116,-9474.636058,2757.943793
996.940347,-3404.947333,-9178.553681,1608.800546
996.940660,-3330.926739,-9252.574275,1072.533697
996.940973,-4219.173869,-8512.368333,919.314598
996.941286,-3923.091493,-8734.430116,383.047749
996.941599,-3552.988522,-8068.244768,0.000000
996.941912,-3923.091493,-8660.409521,919.314598
996.942225,-4071.132681,-8142.265362,1378.971896
996.942538,-3330.926739,-8956.491898,1149.143247
996.942851,-2738.761985,-8512.368333,1072.533697
996.943164,-2960.823768,-9474.636058,2221.676944
996.943476,-3034.844362,-8660.409521,2298.286494
996.943789,-3034.844362,-9326.594869,1915.238745
996.944102,-2886.803174,-8882.471304,1991.848295
996.944415,-3997.112087,-8882.471304,1991.848295
996.944728,-3627.009116,-8586.388927,612.876398
996.945041,-4663.297435,-8956.491898,689.485948
996.945354,-4737.318029,-8438.347739,995.924147
996.945667,-3997.112087,-8586.388927,76.609550
996.945980,-3330.926739,-7920.203579,0.000000
996.946293,-3404.947333,-8586.388927,383.047749
996.946605,-3701.029710,-8734.430116,612.876398
996.946918,-3256.906145,-8956.491898,919.314598
996.947231,-2664.741391,-9104.533087,919.314598
996.947544,-3330.926739,-9844.739029,1838.629195
996.947857,-3256.906145,-9326.594869,1608.800546
996.948170,-3034.844362,-9104.533087,1455.581446
996.948483,-3627.009116,-9178.553681,766.095498
996.948796,-3034.844362,-8882.471304,-229.828649
996.949109,-3627.009116,-8290.306550,0.000000
996.949422,-4515.256246,-7698.141797,306.438199
996.949734,-3849.070898,-8290.306550,306.438199
996.950047,-3701.029710,-8290.306550,-229.828649
996.950360,-4293.194464,-8438.347739,0.000000
996.950673,-4515.256246,-8734.430116,0.000000
996.950986,-3478.967927,-8734.430116,0.000000
996.951299,-3256.906145,-8734.430116,-1072.533697
996.951612,-3552.988522,-9474.636058,0.000000
996.951925,-3330.926739,-10066.800811,536.266849
996.952238,-3627.009116,-9696.697840,689.485948
996.952551,-3478.967927,-8956.491898,536.266849
996.952863,-3627.009116,-9770.718434,153.219100
996.953176,-3182.885551,-9474.636058,-229.828649
996.953489,-4219.173869,-9326.594869,76.609550
996.953802,-4367.215058,-8068.244768,0.000000
996.954115,-3701.029710,-8142.265362,-689.485948
996.954428,-3775.050304,-8068.244768,-919.314598
996.954741,-4515.256246,-7772.162391,-612.876398
996.955054,-3997.112087,-8142.265362,-536.266849
996.955367,-3478.967927,-8882.471304,-689.485948
996.955680,-2960.823768,-8660.409521,-689.485948
996.955992,-3108.864956,-9770.718434,153.219100
996.956305,-2960.823768,-9474.636058,383.047749
996.956618,-3108.864956,-9918.759623,612.876398
996.956931,-3108.864956,-10140.821405,842.705048
996.957244,-3108.864956,-9474.636058,76.609550
996.957557,-3552.988522,-9030.512492,0.000000
996.957870,-4663.297435,-9104.533087,-306.438199
996.958183,-3923.091493,-8364.327145,-383.047749
996.958496,-3627.009116,-7994.224174,-536.266849
996.958809,-4589.276840,-8142.265362,-383.047749
996.959121,-3849.070898,-8882.471304,229.828649
996.959434,-3552.988522,-8956.491898,229.828649
996.959747,-3108.864956,-8438.347739,0.000000
996.960060,-2516.700203,-8882.471304,0.000000
996.960373,-3330.926739,-9548.656652,1225.752797
996.960686,-3627.009116,-8956.491898,383.047749
996.960999,-2886.803174,-8956.491898,1455.581446
996.961312,-3330.926739,-9474.636058,1225.752797
996.961625,-3552.988522,-8512.368333,536.266849
996.961938,-3997.112087,-8808.450710,459.657299
996.962251,-4071.132681,-8586.388927,0.000000
996.962563,-3923.091493,-8808.450710,0.000000
996.962876,-4515.256246,-8290.306550,459.657299
996.963189,-4737.318029,-8438.347739,76.609550
996.963502,-3849.070898,-7846.182985,383.047749
996.963815,-3701.029710,-9030.512492,306.438199
996.964128,-3256.906145,-8808.450710,383.047749
996.964441,-3701.029710,-9252.574275,1149.143247
996.964754,-3182.885551,-8586.388927,1149.143247
996.965067,-2960.823768,-8882.471304,919.314598
996.965380,-2960.823768,-8660.409521,1378.971896
996.965692,-3627.009116,-8808.450710,919.314598
996.966005,-3182.885551,-8586.388927,1455.581446
996.966318,-4367.215058,-8364.327145,995.924147
996.966631,-4219.173869,-8438.347739,536.266849
996.966944,-3627.009116,-8882.471304,229.828649
996.967257,-3775.050304,-9104.533087,0.000000
996.967570,-3775.050304,-8956.491898,766.095498
996.967883,-3701.029710,-9178.553681,1072.533697
996.968196,-2960.823768,-9548.656652,919.314598
996.968509,-2960.823768,-8882.471304,1302.362347
996.968821,-2738.761985,-9548.656652,2298.286494
996.969134,-2960.823768,-9474.636058,1225.752797
996.969447,-2442.679609,-8586.388927,1149.143247
996.969760,-3849.070898,-8956.491898,1685.410096
996.970073,-4219.173869,-8068.244768,842.705048
996.970386,-4293.194464,-8438.347739,459.657299
996.970699,-5033.400406,-8364.327145,1072.533697
996.971012,-4663.297435,-8956.491898,229.828649
996.971325,-4145.153275,-7846.182985,-689.485948
996.971638,-4663.297435,-8586.388927,306.438199
996.971951,-4071.132681,-8586.388927,153.219100
996.972264,-3108.864956,-9104.533087,459.657299
996.972577,-2664.741391,-9252.574275,1149.143247
996.972889,-2738.761985,-9474.636058,1302.362347
996.973202,-2294.638420,-8808.450710,1685.410096
996.973515,-2368.659014,-9252.574275,1378.971896
996.973828,-2516.700203,-9326.594869,1608.800546
996.974141,-3478.967927,-9326.594869,1149.143247
996.974454,-3478.967927,-8512.368333,459.657299
996.974767,-4885.359217,-8290.306550,153.219100
996.975080,-5033.400406,-8290.306550,-459.657299
996.975393,-4737.318029,-7698.141797,-766.095498
996.975706,-4811.338623,-7846.182985,-612.876398
996.976019,-4959.379811,-8068.244768,153.219100
996.976332,-4219.173869,-8660.409521,-229.828649
996.976645,-3256.906145,-8956.491898,0.000000
996.976958,-3404.947333,-8882.471304,842.705048
996.977270,-3034.844362,-9696.697840,1762.019645
996.977583,-2516.700203,-9326.594869,1149.143247
996.977896,-2220.617826,-8808.450710,1302.362347
996.978209,-2812.782580,-9474.636058,1685.410096
996.978522,-3108.864956,-8734.430116,76.609550
996.978835,-3404.947333,-8290.306550,-306.438199
996.979148,-4737.318029,-7920.203579,0.000000
996.979461,-4737.318029,-8734.430116,-153.219100
996.979774,-3997.112087,-8438.347739,-689.485948
996.980087,-4737.318029,-8364.327145,-383.047749
996.980400,-5181.441594,-7846.182985,76.609550
996.980713,-4145.153275,-8956.491898,-306.438199
996.981026,-3034.844362,-9326.594869,-383.047749
996.981339,-3034.844362,-9770.718434,383.047749
996.981652,-2960.823768,-9474.636058,766.095498
996.981964,-2294.638420,-9918.759623,459.657299
996.982277,-2220.617826,-8882.471304,229.828649
996.982590,-2368.659014,-9400.615463,536.266849
996.982903,-1850.514855,-8734.430116,995.924147
996.983216,-2960.823768,-9104.533087,612.876398
996.983529,-3997.112087,-8364.327145,689.485948
996.983842,-3775.050304,-8586.388927,76.609550
996.984155,-4219.173869,-8364.327145,-383.047749
996.984468,-5329.482782,-8734.430116,0.000000
996.984781,-4515.256246,-7994.224174,-306.438199
996.985094,-4219.173869,-8438.347739,-536.266849
996.985407,-3997.112087,-8290.306550,229.828649
996.985720,-4367.215058,-9622.677246,536.266849
996.986033,-3256.906145,-9326.594869,76.609550
996.986345,-2886.803174,-9400.615463,306.438199
996.986658,-3256.906145,-9400.615463,1149.143247
996.986971,-3849.070898,-9474.636058,1072.533697
996.987284,-3034.844362,-8956.491898,919.314598
996.987597,-3478.967927,-8364.327145,1991.848295
996.987910,-3923.091493,-8068.244768,1302.362347
996.988223,-3404.947333,-8512.368333,306.438199
996.988536,-4145.153275,-8512.368333,0.000000
996.988849,-4515.256246,-8290.306550,536.266849
996.989162,-4145.153275,-8438.347739,306.438199
996.989475,-3849.070898,-8734.430116,536.266849
996.989788,-3627.009116,-8512.368333,1455.581446
996.990101,-2442.679609,-9326.594869,1685.410096
996.990414,-2738.761985,-9474.636058,2145.067394
996.990726,-3404.947333,-9178.553681,2374.896044
996.991039,-3404.947333,-9548.656652,2145.067394
996.991352,-3034.844362,-8586.388927,1378.971896
996.991665,-3849.070898,-9104.533087,1532.190996
996.991978,-4219.173869,-8512.368333,1302.362347
996.992291,-3330.926739,-8660.409521,1455.581446
996.992604,-3404.947333,-8364.327145,1455.581446
996.992917,-4737.318029,-8808.450710,1991.848295
996.993230,-4071.132681,-8808.450710,1915.238745
996.993543,-2886.803174,-9252.574275,1838.629195
996.993856,-2886.803174,-8660.409521,2068.457845
996.994169,-3256.906145,-9474.636058,2911.162892
996.994482,-2590.720797,-8808.450710,2298.286494
996.994795,-2886.803174,-8586.388927,2681.334243
996.995108,-2960.823768,-8438.347739,2681.334243
996.995420,-3330.926739,-8956.491898,2298.286494
996.995733,-3330.926739,-8438.347739,1838.629195
996.996046,-4589.276840,-8290.306550,2145.067394
996.996359,-4515.256246,-8216.285956,2221.676944
996.996672,-4071.132681,-8142.265362,766.095498
996.996985,-3923.091493,-8068.244768,1685.410096
996.997298,-3997.112087,-8586.388927,1608.800546
996.997611,-3552.988522,-8364.327145,1838.629195
996.997924,-2664.741391,-8882.471304,1838.629195
996.998237,-2812.782580,-8956.491898,2604.724693
996.998550,-2516.700203,-9326.594869,3370.820191
996.998863,-2368.659014,-9326.594869,3140.991542
996.999176,-2368.659014,-8808.450710,3294.210641
996.999489,-3256.906145,-9104.533087,3064.381992
996.999801,-3256.906145,-7920.203579,2298.286494
997.000114,-3552.988522,-8364.327145,1991.848295
997.000427,-4589.276840,-7624.121203,766.095498
997.000740,-4663.297435,-8290.306550,766.095498
997.001053,-4515.256246,-7772.162391,383.047749
997.001366,-5181.441594,-8068.244768,1072.533697
997.001679,-4885.359217,-7920.203579,1455.581446
997.001992,-4515.256246,-8586.388927,1532.190996
997.002305,-3108.864956,-9400.615463,1455.581446
997.002618,-3404.947333,-9474.636058,2221.676944
997.002931,-2886.803174,-9326.594869,2068.457845
997.003244,-2886.803174,-9178.553681,1838.629195
997.003557,-2960.823768,-8512.368333,1838.629195
997.003870,-3256.906145,-9400.615463,1532.190996
997.004183,-2886.803174,-8660.409521,536.266849
997.004495,-4219.173869,-8290.306550,306.438199
997.004808,-4293.194464,-8660.409521,1302.362347
997.005121,-4145.153275,-8808.450710,76.609550
997.005434,-3552.988522,-8438.347739,0.000000
997.005747,-4515.256246,-8882.471304,612.876398
997.006060,-4145.153275,-8956.491898,919.314598
997.006373,-3552.988522,-9474.636058,842.705048
997.006686,-3478.967927,-8438.347739,536.266849
997.006999,-2738.761985,-9622.677246,1455.581446
997.007312,-2738.761985,-9992.780217,459.657299
997.007625,-2960.823768,-9844.739029,1302.362347
997.007938,-2960.823768,-9622.677246,1608.800546
997.008251,-3108.864956,-9030.512492,842.705048
997.008564,-3182.885551,-8956.491898,766.095498
997.008876,-3997.112087,-8068.244768,536.266849
997.009189,-3552.988522,-8512.368333,-995.924147
997.009502,-2664.741391,-8512.368333,-995.924147
997.009815,-3997.112087,-8734.430116,383.047749
997.010128,-3923.091493,-8586.388927,0.000000
997.010441,-3701.029710,-9252.574275,229.828649
997.010754,-3182.885551,-8956.491898,306.438199
997.011067,-3478.967927,-9770.718434,995.924147
997.011380,-2886.803174,-9696.697840,1455.581446
997.011693,-3256.906145,-9770.718434,2221.676944
997.012006,-3330.926739,-9326.594869,1991.848295
997.012319,-4071.132681,-9474.636058,1225.752797
997.012632,-3478.967927,-8808.450710,229.828649
997.012945,-4515.256246,-8586.388927,459.657299
997.013258,-4663.297435,-8142.265362,153.219100
997.013570,-3849.070898,-8142.265362,536.266849
997.013883,-3923.091493,-7624.121203,76.609550
997.014196,-4219.173869,-7772.162391,536.266849
997.014509,-3775.050304,-7994.224174,229.828649
997.014822,-3182.885551,-9178.553681,766.095498
997.015135,-2812.782580,-8660.409521,842.705048
997.015448,-3108.864956,-9770.718434,2374.896044
997.015761,-2738.761985,-9252.574275,1455.581446
997.016074,-2368.659014,-9252.574275,1378.971896
997.016387,-3552.988522,-9326.594869,2604.724693
997.016700,-3997.112087,-9178.553681,1608.800546
997.017013,-3256.906145,-8808.450710,1072.533697
997.017326,-4885.359217,-8808.450710,1455.581446
997.017639,-4737.318029,-8364.327145,1455.581446
997.017951,-4071.132681,-7920.203579,383.047749
997.018264,-4071.132681,-8586.388927,1225.752797
997.018577,-4589.276840,-8290.306550,1608.800546
997.018890,-3552.988522,-7994.224174,842.705048
997.019203,-2886.803174,-7920.203579,612.876398
997.019516,-3182.885551,-8216.285956,1838.629195
997.019829,-2516.700203,-9622.677246,2451.505594
997.020142,-2516.700203,-9548.656652,2374.896044
997.020455,-2664.741391,-8586.388927,3217.601092
997.020768,-3627.009116,-9178.553681,3983.696590
997.021081,-2220.617826,-9178.553681,2068.457845
997.021394,-3108.864956,-9104.533087,1302.362347
997.021707,-4219.173869,-8142.265362,1762.019645
997.022020,-4071.132681,-8512.368333,1302.362347
997.022332,-3478.967927,-7550.100608,1225.752797
997.022645,-4663.297435,-8216.285956,1762.019645
997.022958,-4145.153275,-8142.265362,1225.752797
997.023271,-3108.864956,-8956.491898,1149.143247
997.023584,-3627.009116,-8290.306550,1455.581446
997.023897,-2812.782580,-8586.388927,2528.115143
997.024210,-2442.679609,-8586.388927,2374.896044
997.024523,-3552.988522,-9548.656652,2987.772442
997.024836,-3034.844362,-8956.491898,2681.334243
997.025149,-3108.864956,-8956.491898,1991.848295
997.025462,-2886.803174,-8068.244768,919.314598
997.025775,-4145.153275,-8512.368333,919.314598
997.026088,-4589.276840,-8364.327145,766.095498
997.026401,-3552.988522,-8142.265362,383.047749
997.026714,-3701.029710,-8438.347739,1149.143247
997.027026,-4811.338623,-9104.533087,1838.629195
997.027339,-3997.112087,-9474.636058,1455.581446
997.027652,-3701.029710,-9474.636058,1149.143247
997.027965,-4071.132681,-9030.512492,1455.581446
997.028278,-3108.864956,-8956.491898,1991.848295
997.028591,-3478.967927,-8660.409521,1225.752797
997.028904,-2960.823768,-8660.409521,1072.533697
997.029217,-3330.926739,-9030.512492,766.095498
997.029530,-3404.947333,-8512.368333,306.438199
997.029843,-3923.091493,-8290.306550,612.876398
997.030156,-4441.235652,-8290.306550,995.924147
997.030469,-4219.173869,-8882.471304,1072.533697
997.030782,-3627.009116,-8586.388927,383.047749
997.031095,-4367.215058,-8734.430116,842.705048
997.031407,-4589.276840,-8290.306550,459.657299
997.031720,-3627.009116,-9400.615463,-153.219100
997.032033,-3108.864956,-9252.574275,76.609550
997.032346,-3478.967927,-9548.656652,536.266849
997.032659,-2664.741391,-9252.574275,995.924147
997.032972,-2738.761985,-9474.636058,1072.533697
997.033285,-2738.761985,-9178.553681,995.924147
997.033598,-2960.823768,-9474.636058,1225.752797
997.033911,-2886.803174,-8882.471304,76.609550
997.034224,-3923.091493,-9030.512492,612.876398
997.034537,-4367.215058,-8660.409521,842.705048
997.034850,-4145.153275,-8512.368333,0.000000
997.035163,-3701.029710,-8364.327145,0.000000
997.035476,-4441.235652,-8956.491898,1072.533697
997.035789,-3997.112087,-8438.347739,383.047749
997.036101,-3256.906145,-8290.306550,0.000000
997.036414,-3182.885551,-8734.430116,842.705048
997.036727,-3256.906145,-9548.656652,1838.629195
997.037040,-2738.761985,-9474.636058,1225.752797
997.037353,-3256.906145,-9400.615463,2221.676944
997.037666,-3552.988522,-9400.615463,1915.238745
997.037979,-3775.050304,-9252.574275,1225.752797
997.038292,-3701.029710,-8660.409521,766.095498
997.038605,-4515.256246,-7994.224174,536.266849
997.038918,-4589.276840,-8512.368333,612.876398
997.039231,-3849.070898,-8438.347739,0.000000
997.039544,-3775.050304,-8586.388927,306.438199
997.039857,-3923.091493,-9030.512492,1378.971896
997.040170,-3627.009116,-9400.615463,1915.238745
997.040482,-2960.823768,-8660.409521,1608.800546
997.040795,-2960.823768,-8512.368333,2145.067394
997.041108,-2072.576638,-8956.491898,2451.505594
997.041421,-3182.885551,-9474.636058,2145.067394
997.041734,-3552.988522,-8364.327145,2298.286494
997.042047,-3849.070898,-8142.265362,2068.457845
997.042360,-3256.906145,-7920.203579,1838.629195
997.042673,-4811.338623,-8808.450710,1378.971896
997.042986,-4885.359217,-8068.244768,1072.533697
997.043299,-4219.173869,-8364.327145,1072.533697
997.043612,-3849.070898,-8512.368333,1302.362347
997.043925,-4737.318029,-8956.491898,1838.629195
997.044238,-3849.070898,-8512.368333,1762.019645
997.044551,-3478.967927,-8882.471304,1838.629195
997.044864,-3256.906145,-8586.388927,1685.410096
997.045176,-3034.844362,-8808.450710,1991.848295
997.045489,-2220.617826,-8364.327145,1915.238745
997.045802,-2664.741391,-9104.533087,2604.724693
997.046115,-2886.803174,-9326.594869,3064.381992
997.046428,-2960.823768,-9104.533087,2145.067394
997.046741,-3330.926739,-8142.265362,2068.457845
997.047054,-4589.276840,-8438.347739,2221.676944
997.047367,-3552.988522,-8660.409521,1608.800546
997.047680,-3330.926739,-8216.285956,612.876398
997.047993,-3997.112087,-8290.306550,1149.143247
997.048306,-4145.153275,-8068.244768,1608.800546
997.048619,-3330.926739,-8882.471304,1378.971896
997.048932,-3701.029710,-8956.491898,1378.971896
997.049245,-2738.761985,-8956.491898,2068.457845
997.049557,-2738.761985,-9400.615463,3064.381992
997.049870,-3330.926739,-9474.636058,2757.943793
997.050183,-3108.864956,-8808.450710,2911.162892
997.050496,-3552.988522,-9178.553681,2451.505594
997.050809,-3627.009116,-8068.244768,1532.190996
997.051122,-4367.215058,-8364.327145,1302.362347
997.051435,-4737.318029,-7846.182985,766.095498
997.051748,-3627.009116,-7846.182985,76.609550
997.052061,-4071.132681,-7994.224174,536.266849
997.052374,-4737.318029,-8512.368333,1225.752797
997.052687,-3775.050304,-7846.182985,1072.533697
997.053000,-3404.947333,-9474.636058,766.095498
997.053313,-3552.988522,-9326.594869,1378.971896
997.053626,-3256.906145,-10066.800811,1762.019645
997.053938,-2812.782580,-9622.677246,1762.019645
997.054251,-2960.823768,-9474.636058,1378.971896
997.054564,-2738.761985,-9178.553681,1838.629195
