#time,accel_x,accel_y,accel_z
852.463176,-4441.235652,-8290.306550,459.657299
852.463489,-3849.070898,-8364.327145,459.657299
852.463802,-3849.070898,-8290.306550,0.000000
852.464114,-4663.297435,-8512.368333,1225.752797
852.464427,-4145.153275,-8808.450710,1149.143247
852.464740,-2738.761985,-9104.533087,536.266849
852.465052,-2368.659014,-9474.636058,1072.533697
852.465365,-2960.823768,-9326.594869,1532.190996
852.465678,-2738.761985,-9178.553681,1991.848295
852.465990,-3108.864956,-8734.430116,995.924147
852.466303,-3478.967927,-8660.409521,1608.800546
852.466616,-3330.926739,-8586.388927,459.657299
852.466928,-4441.235652,-8586.388927,536.266849
852.467241,-4811.338623,-8364.327145,612.876398
852.467554,-4441.235652,-8586.388927,153.219100
852.467866,-3849.070898,-8438.347739,0.000000
852.468179,-4219.173869,-8216.285956,306.438199
852.468492,-4737.318029,-8364.327145,1532.190996
852.468804,-3627.009116,-8808.450710,766.095498
852.469117,-2294.638420,-9104.533087,383.047749
852.469430,-2664.741391,-9400.615463,1608.800546
852.469742,-3034.844362,-9104.533087,1762.019645
852.470055,-3034.844362,-9030.512492,1685.410096
852.470368,-2738.761985,-8882.471304,1455.581446
852.470680,-3404.947333,-9326.594869,1378.971896
852.470993,-3330.926739,-8734.430116,459.657299
852.471305,-4959.379811,-8438.347739,229.828649
852.471618,-5033.400406,-8364.327145,459.657299
852.471931,-4145.153275,-8512.368333,0.000000
852.472243,-3478.967927,-8882.471304,0.000000
852.472556,-4441.235652,-8808.450710,995.924147
852.472869,-3997.112087,-8956.491898,1149.143247
852.473181,-2886.803174,-9030.512492,766.095498
852.473494,-1998.556043,-8956.491898,919.314598
852.473807,-2516.700203,-9252.574275,1455.581446
852.474119,-3108.864956,-9326.594869,1838.629195
852.474432,-3108.864956,-9030.512492,1685.410096
852.474745,-3182.885551,-9326.594869,919.314598
852.475057,-3404.947333,-8956.491898,842.705048
852.475370,-4219.173869,-8586.388927,1072.533697
852.475683,-4737.318029,-8068.244768,1302.362347
852.475995,-4663.297435,-8660.409521,76.609550
852.476308,-4145.153275,-8290.306550,-536.266849
852.476621,-4293.194464,-8586.388927,76.609550
852.476933,-4367.215058,-8734.430116,1072.533697
852.477246,-3552.988522,-8956.491898,1072.533697
852.477559,-2442.679609,-9030.512492,689.485948
852.477871,-2442.679609,-9252.574275,1072.533697
852.478184,-2516.700203,-9252.574275,2068.457845
852.478497,-3404.947333,-8956.491898,1532.190996
852.478809,-2886.803174,-8808.450710,1072.533697
852.479122,-3256.906145,-9326.594869,1149.143247
852.479434,-3478.967927,-8586.388927,766.095498
852.479747,-4589.276840,-8586.388927,842.705048
852.480060,-5033.400406,-8068.244768,689.485948
852.480372,-4663.297435,-8512.368333,-229.828649
852.480685,-3552.988522,-7994.224174,-689.485948
852.480998,-4219.173869,-8216.285956,383.047749
852.481310,-4293.194464,-8586.388927,842.705048
852.481623,-3108.864956,-9030.512492,995.924147
852.481936,-2442.679609,-8956.491898,919.314598
852.482248,-2960.823768,-9474.636058,1838.629195
852.482561,-2812.782580,-9474.636058,1685.410096
852.482874,-2812.782580,-9400.615463,1608.800546
852.483186,-2960.823768,-9030.512492,1149.143247
852.483499,-3404.947333,-9030.512492,1302.362347
852.483812,-3997.112087,-8438.347739,536.266849
852.484124,-4959.379811,-8290.306550,766.095498
852.484437,-4811.338623,-8216.285956,612.876398
852.484750,-3997.112087,-8660.409521,-536.266849
852.485062,-3627.009116,-8808.450710,153.219100
852.485375,-4219.173869,-8586.388927,306.438199
852.485688,-3849.070898,-8290.306550,1608.800546
852.486000,-3034.844362,-8882.471304,689.485948
852.486313,-2294.638420,-8882.471304,919.314598
852.486626,-2812.782580,-9400.615463,1685.410096
852.486938,-3256.906145,-9326.594869,1532.190996
852.487251,-2664.741391,-8882.471304,1455.581446
852.487563,-3034.844362,-9400.615463,1838.629195
852.487876,-3775.050304,-8068.244768,459.657299
852.488189,-4219.173869,-8216.285956,842.705048
852.488501,-4737.318029,-8290.306550,689.485948
852.488814,-3923.091493,-8660.409521,153.219100
852.489127,-2960.823768,-8364.327145,-995.924147
852.489439,-3552.988522,-8586.388927,0.000000
852.489752,-3627.009116,-8438.347739,1302.362347
852.490065,-2738.761985,-9844.739029,995.924147
852.490377,-1850.514855,-9030.512492,995.924147
852.490690,-2590.720797,-9622.677246,1838.629195
852.491003,-3108.864956,-9622.677246,1991.848295
852.491315,-3478.967927,-9474.636058,1838.629195
852.491628,-3182.885551,-8734.430116,1762.019645
852.491941,-3627.009116,-8808.450710,1225.752797
852.492254,-3478.967927,-7994.224174,1149.143247
852.492566,-4811.338623,-7920.203579,-306.438199
852.492879,-5699.585753,-7624.121203,0.000000
852.493192,-4811.338623,-8586.388927,-536.266849
852.493504,-4071.132681,-8216.285956,-766.095498
852.493817,-4145.153275,-8512.368333,689.485948
852.494130,-3478.967927,-9252.574275,1072.533697
852.494443,-2294.638420,-9474.636058,689.485948
852.494755,-1628.453072,-9178.553681,1532.190996
852.495068,-2294.638420,-10140.821405,3217.601092
852.495381,-2220.617826,-9844.739029,2451.505594
852.495693,-1628.453072,-9548.656652,1378.971896
852.496006,-2368.659014,-9326.594869,1378.971896
852.496319,-3923.091493,-9178.553681,1455.581446
852.496632,-4367.215058,-8438.347739,1072.533697
852.496944,-4441.235652,-7772.162391,1072.533697
852.497257,-4145.153275,-7624.121203,76.609550
852.497570,-4219.173869,-7476.080014,-1378.971896
852.497882,-5181.441594,-7698.141797,-919.314598
852.498195,-5107.421000,-8438.347739,689.485948
852.498508,-3182.885551,-8956.491898,459.657299
852.498821,-2294.638420,-8660.409521,383.047749
852.499133,-3034.844362,-9400.615463,2068.457845
852.499446,-2738.761985,-10362.883188,2451.505594
852.499759,-1998.556043,-10066.800811,1532.190996
852.500071,-1332.370696,-9252.574275,1225.752797
852.500384,-3034.844362,-9474.636058,2374.896044
852.500697,-3775.050304,-8956.491898,1532.190996
852.501010,-3997.112087,-8586.388927,383.047749
852.501322,-4367.215058,-8216.285956,0.000000
852.501635,-4441.235652,-8438.347739,-229.828649
852.501948,-3256.906145,-8068.244768,-842.705048
852.502260,-3034.844362,-8290.306550,306.438199
852.502573,-2146.597232,-8660.409521,1072.533697
852.502886,-888.247130,-9326.594869,0.000000
852.503199,0.000000,-8882.471304,76.609550
852.503511,-1184.329507,-9252.574275,1608.800546
852.503824,-1110.308913,-10362.883188,1915.238745
852.504137,148.041188,-11473.192101,995.924147
852.504449,1036.288319,-11103.089130,1072.533697
852.504762,0.000000,-11029.068536,2068.457845
852.505075,-962.267725,-9622.677246,3064.381992
852.505388,-2516.700203,-9918.759623,2374.896044
852.505700,-3034.844362,-9400.615463,995.924147
852.506013,-2664.741391,-8586.388927,-766.095498
852.506326,-3256.906145,-7846.182985,-1838.629195
852.506638,-4071.132681,-7624.121203,0.000000
852.506951,-3330.926739,-8142.265362,766.095498
852.507264,-3552.988522,-8216.285956,995.924147
852.507577,-3182.885551,-8512.368333,1455.581446
852.507889,-4811.338623,-9178.553681,1685.410096
852.508202,-3923.091493,-9178.553681,76.609550
852.508515,-3404.947333,-8956.491898,383.047749
852.508827,-4145.153275,-9400.615463,689.485948
852.509140,-4441.235652,-8808.450710,1072.533697
852.509453,-4663.297435,-8956.491898,1225.752797
852.509766,-5625.565159,-8586.388927,536.266849
852.510078,-4293.194464,-9474.636058,0.000000
852.510391,-3034.844362,-9030.512492,-1302.362347
852.510704,-3627.009116,-8438.347739,0.000000
852.511016,-3849.070898,-8290.306550,1532.190996
852.511329,-3034.844362,-8438.347739,1378.971896
852.511642,-2664.741391,-8808.450710,1072.533697
852.511955,-3330.926739,-8068.244768,1149.143247
852.512267,-3404.947333,-8808.450710,1532.190996
852.512580,-3923.091493,-8808.450710,536.266849
852.512893,-3701.029710,-8512.368333,689.485948
852.513205,-4811.338623,-8512.368333,2068.457845
852.513518,-5847.626942,-8734.430116,1685.410096
852.513831,-6439.791695,-8142.265362,536.266849
852.514144,-6735.874072,-8068.244768,0.000000
852.514456,-5625.565159,-8142.265362,-1149.143247
852.514769,-4293.194464,-8438.347739,-766.095498
852.515082,-4367.215058,-8290.306550,-229.828649
852.515394,-4367.215058,-7550.100608,1685.410096
852.515707,-2516.700203,-8882.471304,1608.800546
852.516020,-1628.453072,-9252.574275,689.485948
852.516333,-1554.432478,-9474.636058,1455.581446
852.516645,-1480.411884,-9622.677246,2145.067394
852.516958,-1332.370696,-9400.615463,1685.410096
852.517271,-1110.308913,-9104.533087,2298.286494
852.517583,-2886.803174,-9696.697840,2834.553343
852.517896,-3404.947333,-8808.450710,1532.190996
852.518209,-4145.153275,-8734.430116,306.438199
852.518522,-4441.235652,-9030.512492,0.000000
852.518834,-3775.050304,-8734.430116,-766.095498
852.519147,-3849.070898,-8512.368333,229.828649
852.519460,-4071.132681,-9030.512492,1608.800546
852.519772,-3256.906145,-8808.450710,1838.629195
852.520085,-2368.659014,-8734.430116,689.485948
852.520398,-1628.453072,-8660.409521,383.047749
852.520711,-1554.432478,-8956.491898,612.876398
852.521023,-1406.391290,-9178.553681,689.485948
852.521336,-1332.370696,-9030.512492,1608.800546
852.521649,-2146.597232,-9104.533087,2145.067394
852.521961,-2442.679609,-9104.533087,2145.067394
852.522274,-3552.988522,-9474.636058,1378.971896
852.522587,-4737.318029,-9104.533087,1302.362347
852.522900,-4145.153275,-9844.739029,0.000000
852.523212,-3849.070898,-9104.533087,-1302.362347
852.523525,-5107.421000,-8882.471304,76.609550
852.523838,-5551.544565,-8512.368333,1225.752797
852.524150,-4367.215058,-8808.450710,766.095498
852.524463,-3478.967927,-9252.574275,76.609550
852.524776,-3627.009116,-9252.574275,459.657299
852.525089,-3775.050304,-9104.533087,842.705048
852.525401,-3997.112087,-8660.409521,1149.143247
852.525714,-3997.112087,-7402.059420,1915.238745
852.526027,-4811.338623,-8216.285956,2221.676944
852.526339,-4737.318029,-7772.162391,1685.410096
852.526652,-5699.585753,-7846.182985,919.314598
852.526965,-6513.812290,-7476.080014,153.219100
852.527278,-5995.668130,-7328.038826,153.219100
852.527590,-5699.585753,-7624.121203,-229.828649
852.527903,-5773.606348,-7920.203579,842.705048
852.528216,-5551.544565,-8364.327145,842.705048
852.528528,-4515.256246,-8734.430116,153.219100
852.528841,-3997.112087,-8364.327145,306.438199
852.529154,-4145.153275,-8956.491898,1762.019645
852.529467,-3701.029710,-9474.636058,1608.800546
852.529779,-3701.029710,-8808.450710,1685.410096
852.530092,-3849.070898,-8586.388927,1685.410096
852.530405,-4293.194464,-8290.306550,1149.143247
852.530717,-4145.153275,-8142.265362,536.266849
852.531030,-4737.318029,-7698.141797,536.266849
852.531343,-4737.318029,-8438.347739,1149.143247
852.531656,-5033.400406,-7550.100608,459.657299
852.531968,-4589.276840,-8216.285956,536.266849
852.532281,-4663.297435,-8660.409521,1302.362347
852.532594,-3849.070898,-9252.574275,459.657299
852.532906,-2516.700203,-9104.533087,76.609550
852.533219,-2664.741391,-9252.574275,306.438199
852.533532,-2516.700203,-9252.574275,1532.190996
852.533845,-2664.741391,-9474.636058,1302.362347
852.534157,-2368.659014,-8734.430116,2068.457845
852.534470,-2664.741391,-9400.615463,2451.505594
852.534783,-2738.761985,-8882.471304,919.314598
852.535095,-3182.885551,-8808.450710,919.314598
852.535408,-3849.070898,-8364.327145,766.095498
852.535721,-4071.132681,-8364.327145,612.876398
852.536034,-3108.864956,-7994.224174,383.047749
852.536346,-3923.091493,-8290.306550,1072.533697
852.536659,-3997.112087,-8586.388927,1225.752797
852.536972,-3330.926739,-9474.636058,919.314598
852.537284,-2368.659014,-9548.656652,459.657299
852.537597,-2442.679609,-9918.759623,1685.410096
852.537910,-2812.782580,-9844.739029,1455.581446
852.538223,-2886.803174,-9844.739029,1302.362347
852.538535,-2738.761985,-8808.450710,1532.190996
852.538848,-3182.885551,-9770.718434,1149.143247
852.539161,-3330.926739,-8734.430116,229.828649
852.539473,-4737.318029,-7550.100608,306.438199
852.539786,-5699.585753,-8068.244768,919.314598
852.540099,-4811.338623,-8068.244768,0.000000
852.540412,-4441.235652,-7402.059420,-153.219100
852.540724,-5329.482782,-7846.182985,536.266849
852.541037,-4737.318029,-7920.203579,919.314598
852.541350,-3552.988522,-8364.327145,306.438199
852.541662,-4071.132681,-8216.285956,229.828649
852.541975,-4441.235652,-9400.615463,1762.019645
852.542288,-3330.926739,-9844.739029,1378.971896
852.542601,-3256.906145,-9400.615463,1072.533697
852.542913,-4959.379811,-8956.491898,1762.019645
852.543226,-5181.441594,-8808.450710,1072.533697
852.543539,-3923.091493,-9252.574275,0.000000
852.543851,-4811.338623,-7476.080014,0.000000
852.544164,-6513.812290,-7476.080014,2221.676944
852.544477,-6069.688724,-7772.162391,153.219100
852.544790,-4737.318029,-8068.244768,0.000000
852.545102,-4515.256246,-7476.080014,306.438199
852.545415,-4737.318029,-7550.100608,766.095498
852.545728,-4441.235652,-7772.162391,995.924147
852.546040,-3627.009116,-8364.327145,1608.800546
852.546353,-2146.597232,-8512.368333,1991.848295
852.546666,-1850.514855,-9474.636058,1149.143247
852.546979,-3404.947333,-8956.491898,1302.362347
852.547291,-4441.235652,-9474.636058,1915.238745
852.547604,-3552.988522,-8956.491898,1302.362347
852.547917,-4367.215058,-9252.574275,1302.362347
852.548229,-4737.318029,-9030.512492,995.924147
852.548542,-4293.194464,-9252.574275,306.438199
852.548855,-3256.906145,-7920.203579,-306.438199
852.549168,-4145.153275,-8068.244768,536.266849
852.549480,-4293.194464,-8586.388927,1225.752797
852.549793,-3849.070898,-9030.512492,1455.581446
852.550106,-3108.864956,-8290.306550,766.095498
852.550418,-3182.885551,-8956.491898,919.314598
852.550731,-2886.803174,-8882.471304,1149.143247
852.551044,-2516.700203,-9252.574275,1685.410096
852.551357,-1628.453072,-8734.430116,2145.067394
852.551669,-2368.659014,-9104.533087,1915.238745
852.551982,-2960.823768,-8734.430116,383.047749
852.552295,-4441.235652,-8660.409521,229.828649
852.552607,-4293.194464,-9178.553681,612.876398
852.552920,-3404.947333,-9696.697840,0.000000
852.553233,-3256.906145,-9030.512492,76.609550
852.553546,-3849.070898,-9252.574275,1532.190996
852.553858,-3775.050304,-8956.491898,1378.971896
852.554171,-2590.720797,-9252.574275,766.095498
852.554484,-2220.617826,-8956.491898,1072.533697
852.554796,-2812.782580,-9178.553681,2374.896044
852.555109,-2812.782580,-9030.512492,1685.410096
852.555422,-3182.885551,-8142.265362,1532.190996
852.555735,-4071.132681,-8364.327145,1685.410096
852.556047,-4441.235652,-7846.182985,536.266849
852.556360,-4367.215058,-8068.244768,0.000000
852.556673,-5329.482782,-7624.121203,0.000000
852.556985,-5329.482782,-8290.306550,-229.828649
852.557298,-5033.400406,-8512.368333,-689.485948
852.557611,-4811.338623,-8586.388927,153.219100
852.557924,-4959.379811,-8512.368333,1072.533697
852.558236,-4219.173869,-9178.553681,995.924147
852.558549,-2812.782580,-9622.677246,842.705048
852.558862,-2886.803174,-10066.800811,1608.800546
852.559174,-2738.761985,-9400.615463,2068.457845
852.559487,-3701.029710,-9178.553681,2221.676944
852.559800,-4367.215058,-8734.430116,2298.286494
852.560113,-4589.276840,-8734.430116,1149.143247
852.560425,-3849.070898,-7772.162391,536.266849
852.560738,-4737.318029,-7920.203579,-536.266849
852.561051,-5699.585753,-7550.100608,-383.047749
852.561363,-5255.462188,-7920.203579,-306.438199
852.561676,-3775.050304,-8068.244768,-612.876398
852.561989,-3701.029710,-8290.306550,229.828649
852.562302,-3997.112087,-8956.491898,1225.752797
852.562614,-3330.926739,-9622.677246,1991.848295
852.562927,-2294.638420,-9548.656652,919.314598
852.563240,-2072.576638,-9326.594869,2145.067394
852.563552,-1554.432478,-9474.636058,2604.724693
852.563865,-2442.679609,-9104.533087,2145.067394
852.564178,-2294.638420,-9252.574275,1838.629195
852.564491,-3034.844362,-9104.533087,995.924147
852.564803,-3849.070898,-8290.306550,459.657299
852.565116,-5255.462188,-7846.182985,919.314598
852.565429,-4589.276840,-8068.244768,229.828649
852.565741,-3256.906145,-8364.327145,-459.657299
852.566054,-3627.009116,-7846.182985,-383.047749
852.566367,-4737.318029,-8438.347739,1072.533697
852.566680,-4515.256246,-8808.450710,1378.971896
852.566992,-2590.720797,-9104.533087,306.438199
852.567305,-1998.556043,-9474.636058,919.314598
852.567618,-2960.823768,-9474.636058,1608.800546
852.567930,-3478.967927,-9474.636058,2374.896044
852.568243,-2812.782580,-8956.491898,2911.162892
852.568556,-2812.782580,-9474.636058,1915.238745
852.568869,-3108.864956,-8586.388927,459.657299
852.569181,-4885.359217,-8290.306550,306.438199
852.569494,-5403.503377,-8068.244768,383.047749
852.569807,-3997.112087,-8734.430116,-229.828649
852.570119,-3849.070898,-7105.977043,-612.876398
852.570432,-6143.709319,-7550.100608,1455.581446
852.570745,-6809.894666,-8068.244768,919.314598
852.571058,-4811.338623,-8956.491898,-383.047749
852.571370,-3701.029710,-8882.471304,0.000000
852.571683,-4737.318029,-9400.615463,1838.629195
852.571996,-4959.379811,-8956.491898,2451.505594
852.572308,-4737.318029,-8586.388927,2221.676944
852.572621,-5329.482782,-7402.059420,1838.629195
852.572934,-6217.729913,-8438.347739,1072.533697
852.573247,-5995.668130,-8068.244768,-842.705048
852.573559,-5995.668130,-7254.018232,-536.266849
852.573872,-6587.832884,-7105.977043,76.609550
852.574185,-6069.688724,-7698.141797,153.219100
852.574497,-4959.379811,-7624.121203,0.000000
852.574810,-4737.318029,-7179.997637,919.314598
852.575123,-4663.297435,-8142.265362,1532.190996
852.575436,-3552.988522,-9474.636058,842.705048
852.575748,-3256.906145,-9104.533087,0.000000
852.576061,-3108.864956,-9178.553681,1685.410096
852.576374,-2960.823768,-9622.677246,2451.505594
852.576686,-3182.885551,-9622.677246,2145.067394
852.576999,-2886.803174,-9844.739029,2145.067394
852.577312,-3330.926739,-9178.553681,1302.362347
852.577625,-3108.864956,-8438.347739,459.657299
852.577937,-4293.194464,-8364.327145,766.095498
852.578250,-4441.235652,-8216.285956,919.314598
852.578563,-3849.070898,-7846.182985,306.438199
852.578875,-3849.070898,-7772.162391,76.609550
852.579188,-4441.235652,-8290.306550,459.657299
852.579501,-3775.050304,-8808.450710,383.047749
852.579814,-2368.659014,-8438.347739,612.876398
852.580126,-2072.576638,-8882.471304,1149.143247
852.580439,-2146.597232,-9326.594869,1378.971896
852.580752,-2738.761985,-9696.697840,2298.286494
852.581064,-2812.782580,-9474.636058,1302.362347
852.581377,-2738.761985,-9992.780217,1302.362347
852.581690,-2590.720797,-9104.533087,153.219100
852.582003,-3701.029710,-9548.656652,1072.533697
852.582315,-4293.194464,-8142.265362,1225.752797
852.582628,-3478.967927,-9178.553681,1072.533697
852.582941,-3478.967927,-7994.224174,-153.219100
852.583253,-4293.194464,-8586.388927,229.828649
852.583566,-3701.029710,-8438.347739,459.657299
852.583879,-2960.823768,-9474.636058,229.828649
852.584192,-1850.514855,-8586.388927,459.657299
852.584504,-2664.741391,-9622.677246,1838.629195
852.584817,-2590.720797,-8956.491898,2221.676944
852.585130,-2664.741391,-9400.615463,1915.238745
852.585442,-2738.761985,-8956.491898,1455.581446
852.585755,-3775.050304,-9918.759623,1072.533697
852.586068,-3923.091493,-8734.430116,766.095498
852.586381,-5255.462188,-8438.347739,1072.533697
852.586693,-5551.544565,-8142.265362,1532.190996
852.587006,-5921.647536,-8586.388927,612.876398
852.587319,-5107.421000,-7698.141797,-459.657299
852.587631,-5477.523971,-8068.244768,153.219100
852.587944,-5329.482782,-7624.121203,0.000000
852.588257,-4589.276840,-8586.388927,153.219100
852.588570,-3701.029710,-8512.368333,459.657299
852.588882,-3849.070898,-9104.533087,1838.629195
852.589195,-4441.235652,-8808.450710,2145.067394
852.589508,-3552.988522,-8882.471304,1072.533697
852.589820,-4071.132681,-8956.491898,842.705048
852.590133,-4515.256246,-8808.450710,1072.533697
852.590446,-4219.173869,-8438.347739,229.828649
852.590759,-5255.462188,-8142.265362,842.705048
852.591071,-5699.585753,-7994.224174,1149.143247
852.591384,-5033.400406,-7772.162391,229.828649
852.591697,-4663.297435,-7772.162391,-536.266849
852.592010,-4737.318029,-8068.244768,153.219100
852.592322,-4959.379811,-8364.327145,306.438199
852.592635,-4071.132681,-7920.203579,919.314598
852.592948,-3330.926739,-8364.327145,1455.581446
852.593261,-3404.947333,-8808.450710,2068.457845
852.593574,-3627.009116,-9178.553681,1838.629195
852.593886,-3552.988522,-8512.368333,1149.143247
852.594199,-3256.906145,-9326.594869,919.314598
852.594512,-3108.864956,-8734.430116,383.047749
852.594825,-4071.132681,-8660.409521,1532.190996
852.595137,-4959.379811,-8216.285956,1302.362347
852.595450,-4885.359217,-8660.409521,919.314598
852.595763,-3997.112087,-8290.306550,229.828649
852.596076,-4071.132681,-8586.388927,459.657299
852.596389,-4071.132681,-8734.430116,1072.533697
852.596701,-3552.988522,-9178.553681,1225.752797
852.597014,-2516.700203,-8438.347739,842.705048
852.597327,-2516.700203,-9252.574275,1685.410096
852.597640,-3034.844362,-8956.491898,1608.800546
852.597952,-2812.782580,-9326.594869,1838.629195
852.598265,-2738.761985,-9178.553681,1149.143247
852.598578,-3330.926739,-9400.615463,842.705048
852.598891,-3552.988522,-8142.265362,0.000000
852.599204,-4737.318029,-8290.306550,689.485948
852.599516,-5107.421000,-8364.327145,689.485948
852.599829,-4071.132681,-8364.327145,76.609550
852.600142,-3775.050304,-8586.388927,76.609550
852.600455,-4219.173869,-8808.450710,612.876398
852.600768,-3997.112087,-8512.368333,766.095498
852.601080,-3404.947333,-9030.512492,842.705048
852.601393,-2960.823768,-9030.512492,1532.190996
852.601706,-2738.761985,-9326.594869,1915.238745
852.602019,-2664.741391,-9400.615463,842.705048
852.602331,-3034.844362,-8734.430116,1149.143247
852.602644,-3404.947333,-9400.615463,1149.143247
852.602957,-3552.988522,-9252.574275,766.095498
852.603270,-3404.947333,-9104.533087,612.876398
852.603583,-4293.194464,-8364.327145,1072.533697
852.603895,-4737.318029,-8438.347739,766.095498
852.604208,-3775.050304,-8364.327145,0.000000
852.604521,-4219.173869,-8216.285956,-153.219100
852.604834,-4293.194464,-8734.430116,689.485948
852.605146,-4441.235652,-8882.471304,1225.752797
852.605459,-3478.967927,-8956.491898,842.705048
852.605772,-3330.926739,-8882.471304,1378.971896
852.606085,-3701.029710,-8956.491898,1915.238745
852.606398,-4145.153275,-8734.430116,1225.752797
852.606710,-3552.988522,-8068.244768,612.876398
852.607023,-4071.132681,-8734.430116,1532.190996
852.607336,-4589.276840,-8216.285956,536.266849
852.607649,-5107.421000,-8290.306550,459.657299
852.607961,-5181.441594,-7994.224174,306.438199
852.608274,-4885.359217,-7994.224174,0.000000
852.608587,-3627.009116,-7772.162391,-919.314598
852.608900,-4145.153275,-8586.388927,0.000000
852.609213,-3478.967927,-8586.388927,612.876398
852.609525,-2590.720797,-9030.512492,612.876398
852.609838,-2220.617826,-9474.636058,1455.581446
852.610151,-2368.659014,-10066.800811,2298.286494
852.610464,-2220.617826,-9844.739029,1685.410096
852.610776,-2072.576638,-9474.636058,1838.629195
852.611089,-2368.659014,-8956.491898,1378.971896
852.611402,-3330.926739,-9030.512492,1532.190996
852.611715,-2590.720797,-8290.306550,306.438199
852.612028,-3478.967927,-8290.306550,0.000000
852.612340,-4219.173869,-8216.285956,306.438199
852.612653,-3627.009116,-8512.368333,-612.876398
852.612966,-3034.844362,-9030.512492,-766.095498
852.613279,-3108.864956,-9104.533087,229.828649
852.613592,-2664.741391,-9178.553681,383.047749
852.613904,-1554.432478,-9696.697840,1608.800546
852.614217,-1332.370696,-9696.697840,1378.971896
852.614530,-814.226536,-10214.842000,1838.629195
852.614843,-962.267725,-10436.903782,1915.238745
852.615155,-1776.494261,-9474.636058,2451.505594
852.615468,-2146.597232,-9622.677246,2221.676944
852.615781,-2886.803174,-9030.512492,1455.581446
852.616094,-2886.803174,-9030.512492,1072.533697
852.616407,-3997.112087,-8808.450710,536.266849
852.616719,-4293.194464,-8290.306550,383.047749
852.617032,-4145.153275,-7550.100608,-766.095498
852.617345,-4441.235652,-8290.306550,-536.266849
852.617658,-4367.215058,-8734.430116,0.000000
852.617970,-3256.906145,-9474.636058,153.219100
852.618283,-2368.659014,-8956.491898,229.828649
852.618596,-1924.535449,-9178.553681,1685.410096
852.618909,-2220.617826,-9770.718434,2298.286494
852.619222,-2368.659014,-10066.800811,2145.067394
852.619534,-1924.535449,-9474.636058,2145.067394
852.619847,-2812.782580,-9622.677246,1915.238745
852.620160,-3552.988522,-8808.450710,1378.971896
852.620473,-4515.256246,-8808.450710,1225.752797
852.620785,-4885.359217,-8364.327145,689.485948
852.621098,-4959.379811,-7772.162391,-306.438199
852.621411,-5255.462188,-7105.977043,-229.828649
852.621724,-5181.441594,-7698.141797,0.000000
852.622037,-4885.359217,-7846.182985,153.219100
852.622349,-4219.173869,-8438.347739,0.000000
852.622662,-3256.906145,-8364.327145,306.438199
852.622975,-3552.988522,-8734.430116,1378.971896
852.623288,-3034.844362,-9030.512492,2374.896044
852.623600,-2960.823768,-9474.636058,2451.505594
852.623913,-2738.761985,-9622.677246,2068.457845
852.624226,-3404.947333,-9474.636058,1225.752797
852.624539,-3627.009116,-8734.430116,536.266849
852.624852,-4441.235652,-8290.306550,1149.143247
852.625164,-4737.318029,-8586.388927,1072.533697
852.625477,-4071.132681,-8290.306550,306.438199
852.625790,-3997.112087,-8290.306550,229.828649
852.626103,-4219.173869,-8290.306550,842.705048
852.626416,-3701.029710,-8142.265362,0.000000
852.626728,-2368.659014,-8512.368333,0.000000
852.627041,-1850.514855,-8808.450710,459.657299
852.627354,-2072.576638,-9400.615463,1225.752797
852.627667,-2368.659014,-9474.636058,1455.581446
852.627979,-2146.597232,-8956.491898,1685.410096
852.628292,-2146.597232,-10066.800811,1762.019645
852.628605,-2072.576638,-9770.718434,536.266849
852.628918,-2368.659014,-10066.800811,995.924147
852.629231,-3552.988522,-9326.594869,1072.533697
852.629543,-3627.009116,-9252.574275,919.314598
852.629856,-2590.720797,-8512.368333,0.000000
852.630169,-3182.885551,-8956.491898,383.047749
852.630482,-3330.926739,-8956.491898,536.266849
852.630794,-2442.679609,-9178.553681,919.314598
852.631107,-1554.432478,-8956.491898,153.219100
852.631420,-2072.576638,-9326.594869,1378.971896
852.631733,-1998.556043,-9252.574275,919.314598
852.632046,-2072.576638,-9770.718434,1378.971896
852.632358,-1850.514855,-8882.471304,919.314598
852.632671,-2442.679609,-10066.800811,1685.410096
852.632984,-2590.720797,-9104.533087,229.828649
852.633297,-3478.967927,-9474.636058,689.485948
852.633609,-3478.967927,-9474.636058,1149.143247
852.633922,-3775.050304,-9474.636058,842.705048
852.634235,-3256.906145,-8882.471304,229.828649
852.634548,-3923.091493,-9400.615463,919.314598
852.634861,-3997.112087,-8808.450710,612.876398
852.635173,-3108.864956,-9030.512492,459.657299
852.635486,-2516.700203,-8142.265362,229.828649
852.635799,-2812.782580,-8364.327145,1225.752797
852.636112,-2590.720797,-8586.388927,1608.800546
852.636425,-3108.864956,-8438.347739,1302.362347
852.636737,-3330.926739,-8290.306550,1302.362347
852.637050,-4071.132681,-8512.368333,612.876398
852.637363,-3923.091493,-8364.327145,76.609550
852.637676,-4811.338623,-7698.141797,459.657299
852.637988,-5107.421000,-8660.409521,919.314598
852.638301,-4441.235652,-8734.430116,459.657299
852.638614,-4589.276840,-8586.388927,612.876398
852.638927,-5033.400406,-9104.533087,919.314598
852.639240,-4145.153275,-9474.636058,612.876398
852.639552,-2738.761985,-9030.512492,459.657299
852.639865,-3108.864956,-8956.491898,1685.410096
852.640178,-2590.720797,-9252.574275,1915.238745
852.640491,-2368.659014,-9030.512492,1838.629195
852.640803,-2812.782580,-7698.141797,1455.581446
852.641116,-3849.070898,-8512.368333,1838.629195
852.641429,-2664.741391,-8660.409521,153.219100
852.641742,-3330.926739,-7994.224174,0.000000
852.642055,-5329.482782,-7476.080014,842.705048
852.642367,-5033.400406,-8660.409521,766.095498
852.642680,-2886.803174,-8438.347739,-1378.971896
852.642993,-3997.112087,-8216.285956,306.438199
852.643306,-5181.441594,-8660.409521,2068.457845
852.643618,-3923.091493,-9918.759623,1685.410096
852.643931,-1628.453072,-9696.697840,536.266849
852.644244,-1554.432478,-9992.780217,1762.019645
852.644557,-2368.659014,-9474.636058,1838.629195
852.644870,-2738.761985,-9474.636058,1991.848295
852.645182,-2220.617826,-8660.409521,1838.629195
852.645495,-666.185348,-9326.594869,1225.752797
852.645808,-740.205942,-8586.388927,536.266849
852.646121,-3330.926739,-8438.347739,459.657299
852.646433,-4145.153275,-8290.306550,689.485948
852.646746,-3182.885551,-8512.368333,766.095498
852.647059,-2812.782580,-8882.471304,306.438199
852.647372,-3478.967927,-9178.553681,995.924147
852.647685,-2738.761985,-8956.491898,536.266849
852.647997,-2072.576638,-9178.553681,1149.143247
852.648310,-1628.453072,-9918.759623,842.705048
852.648623,-1924.535449,-10140.821405,2221.676944
852.648936,-2442.679609,-9622.677246,2451.505594
852.649249,-3404.947333,-9400.615463,2374.896044
852.649561,-3256.906145,-9844.739029,383.047749
852.649874,-2738.761985,-9104.533087,-612.876398
852.650187,-2886.803174,-8290.306550,153.219100
852.650500,-4293.194464,-7328.038826,995.924147
852.650812,-4367.215058,-8438.347739,919.314598
852.651125,-3701.029710,-8068.244768,-536.266849
852.651438,-3627.009116,-8290.306550,-766.095498
852.651751,-3923.091493,-8660.409521,0.000000
852.652064,-3552.988522,-9548.656652,306.438199
852.652376,-2664.741391,-9030.512492,612.876398
852.652689,-2368.659014,-9622.677246,1991.848295
852.653002,-2664.741391,-9696.697840,2068.457845
852.653315,-3701.029710,-9770.718434,1685.410096
852.653627,-4145.153275,-9104.533087,1302.362347
852.653940,-4663.297435,-9622.677246,1608.800546
852.654253,-4737.318029,-8734.430116,612.876398
852.654566,-5699.585753,-7624.121203,995.924147
852.654879,-6735.874072,-7402.059420,306.438199
852.655191,-6735.874072,-7254.018232,536.266849
852.655504,-4219.173869,-7402.059420,-1608.800546
852.655817,-3404.947333,-7772.162391,-1838.629195
852.656130,-3330.926739,-7772.162391,-766.095498
852.656442,-3330.926739,-8882.471304,306.438199
852.656755,-1924.535449,-9548.656652,842.705048
852.657068,-666.185348,-10288.862594,2451.505594
852.657381,-1036.288319,-10214.842000,1685.410096
852.657694,-1850.514855,-10362.883188,3294.210641
852.658006,-2220.617826,-10658.965565,2681.334243
852.658319,-2442.679609,-9992.780217,2451.505594
852.658632,-3330.926739,-8586.388927,2068.457845
852.658945,-5329.482782,-8142.265362,2221.676944
852.659257,-6439.791695,-7920.203579,919.314598
852.659570,-5551.544565,-7402.059420,-1378.971896
852.659883,-4885.359217,-6809.894666,-1915.238745
852.660196,-5329.482782,-7476.080014,-1072.533697
852.660509,-4663.297435,-7698.141797,-612.876398
852.660821,-3034.844362,-7772.162391,-383.047749
852.661134,-1850.514855,-8956.491898,383.047749
852.661447,-1554.432478,-10066.800811,1608.800546
852.661760,-888.247130,-10510.924376,2298.286494
852.662073,-1036.288319,-9992.780217,3447.429741
852.662385,-1480.411884,-10807.006753,3753.867940
852.662698,-1406.391290,-10436.903782,2757.943793
852.663011,-1924.535449,-9992.780217,2145.067394
852.663324,-3182.885551,-8660.409521,1762.019645
852.663636,-4737.318029,-8438.347739,1072.533697
852.663949,-4737.318029,-8068.244768,-766.095498
852.664262,-5181.441594,-7994.224174,-1225.752797
852.664575,-4885.359217,-7328.038826,-1378.971896
852.664888,-4515.256246,-8068.244768,-766.095498
852.665200,-3775.050304,-8512.368333,-383.047749
852.665513,-3404.947333,-9400.615463,1072.533697
852.665826,-2294.638420,-9178.553681,1302.362347
852.666139,-1702.473667,-10140.821405,1762.019645
852.666451,-2368.659014,-9400.615463,2221.676944
852.666764,-3034.844362,-9548.656652,2528.115143
852.667077,-2960.823768,-9030.512492,2528.115143
852.667390,-3478.967927,-9252.574275,1532.190996
852.667703,-3849.070898,-8734.430116,1072.533697
852.668015,-4589.276840,-8142.265362,-229.828649
852.668328,-4219.173869,-7994.224174,-1149.143247
852.668641,-3849.070898,-9030.512492,-995.924147
852.668954,-2516.700203,-7772.162391,-919.314598
852.669266,-3034.844362,-7772.162391,689.485948
852.669579,-3034.844362,-8586.388927,919.314598
852.669892,-1628.453072,-10214.842000,459.657299
852.670205,0.000000,-10436.903782,536.266849
852.670518,-740.205942,-9770.718434,2374.896044
852.670830,-1554.432478,-10436.903782,3064.381992
852.671143,-1850.514855,-10510.924376,2298.286494
852.671456,-1998.556043,-9030.512492,1838.629195
852.671769,-3478.967927,-8956.491898,1762.019645
852.672082,-4071.132681,-9104.533087,459.657299
852.672394,-3849.070898,-7994.224174,-459.657299
852.672707,-4071.132681,-8068.244768,0.000000
852.673020,-4293.194464,-8216.285956,536.266849
852.673333,-3256.906145,-8364.327145,153.219100
852.673645,-2812.782580,-8364.327145,76.609550
852.673958,-1998.556043,-8290.306550,1302.362347
852.674271,-1776.494261,-8882.471304,1455.581446
852.674584,-2442.679609,-9770.718434,612.876398
852.674897,-2368.659014,-8808.450710,1685.410096
852.675209,-2738.761985,-9622.677246,2145.067394
852.675522,-3552.988522,-10066.800811,766.095498
852.675835,-4367.215058,-9844.739029,842.705048
852.676148,-4367.215058,-9622.677246,536.266849
852.676460,-4441.235652,-9326.594869,153.219100
852.676773,-4367.215058,-8290.306550,76.609550
852.677086,-4589.276840,-8586.388927,459.657299
852.677399,-3552.988522,-8438.347739,842.705048
852.677712,-3182.885551,-8364.327145,1149.143247
852.678024,-2664.741391,-8734.430116,919.314598
852.678337,-2516.700203,-9030.512492,1149.143247
852.678650,-2146.597232,-8808.450710,1225.752797
852.678963,-2368.659014,-8438.347739,1455.581446
852.679275,-2442.679609,-8512.368333,1378.971896
852.679588,-3627.009116,-9030.512492,1302.362347
852.679901,-4293.194464,-8808.450710,459.657299
852.680214,-4663.297435,-8734.430116,536.266849
852.680527,-4589.276840,-8734.430116,459.657299
852.680839,-5107.421000,-9178.553681,459.657299
852.681152,-4737.318029,-8216.285956,842.705048
852.681465,-4145.153275,-8808.450710,1532.190996
852.681778,-3849.070898,-8364.327145,689.485948
852.682090,-2960.823768,-8956.491898,383.047749
852.682403,-2590.720797,-8364.327145,842.705048
852.682716,-2294.638420,-9400.615463,1455.581446
852.683029,-2220.617826,-8956.491898,1149.143247
852.683342,-2368.659014,-9104.533087,1532.190996
852.683654,-2886.803174,-8956.491898,1838.629195
852.683967,-3701.029710,-8734.430116,689.485948
852.684280,-3478.967927,-8882.471304,76.609550
852.684593,-3997.112087,-8956.491898,383.047749
852.684906,-4737.318029,-9030.512492,536.266849
852.685218,-4737.318029,-8882.471304,229.828649
852.685531,-4071.132681,-8660.409521,536.266849
852.685844,-3849.070898,-9030.512492,766.095498
852.686157,-3034.844362,-9178.553681,612.876398
852.686469,-1998.556043,-8808.450710,536.266849
852.686782,-1554.432478,-8956.491898,919.314598
852.687095,-1406.391290,-9326.594869,1149.143247
852.687408,-962.267725,-9252.574275,1532.190996
852.687721,-1332.370696,-8808.450710,2298.286494
852.688033,-2072.576638,-9548.656652,2068.457845
852.688346,-1480.411884,-9474.636058,612.876398
852.688659,-2516.700203,-8956.491898,766.095498
852.688972,-3256.906145,-9030.512492,1302.362347
852.689284,-3997.112087,-9252.574275,1455.581446
852.689597,-3849.070898,-8734.430116,459.657299
852.689910,-4145.153275,-9326.594869,612.876398
852.690223,-4145.153275,-9326.594869,459.657299
852.690536,-3701.029710,-9326.594869,459.657299
852.690848,-2516.700203,-9030.512492,459.657299
852.691161,-2368.659014,-9178.553681,1149.143247
852.691474,-2220.617826,-8956.491898,1225.752797
852.691787,-2368.659014,-8808.450710,1532.190996
852.692099,-2368.659014,-8734.430116,1532.190996
852.692412,-2516.700203,-9030.512492,919.314598
852.692725,-2886.803174,-8660.409521,383.047749
852.693037,-3997.112087,-8142.265362,766.095498
852.693350,-4737.318029,-8438.347739,1378.971896
852.693663,-4737.318029,-8512.368333,459.657299
852.693975,-4071.132681,-9030.512492,459.657299
852.694288,-4885.359217,-8882.471304,612.876398
852.694601,-4737.318029,-9030.512492,842.705048
852.694914,-3923.091493,-8956.491898,383.047749
852.695226,-3404.947333,-8956.491898,842.705048
852.695539,-3182.885551,-8808.450710,1378.971896
852.695852,-3108.864956,-9104.533087,1915.238745
852.696164,-2664.741391,-9252.574275,1378.971896
852.696477,-3478.967927,-8660.409521,766.095498
852.696790,-3256.906145,-7994.224174,0.000000
852.697102,-3775.050304,-8142.265362,306.438199
852.697415,-4441.235652,-7994.224174,689.485948
852.697728,-4737.318029,-8512.368333,995.924147
852.698041,-3923.091493,-8438.347739,842.705048
852.698353,-3997.112087,-8660.409521,842.705048
852.698666,-4145.153275,-8438.347739,612.876398
852.698979,-3478.967927,-9178.553681,1302.362347
852.699291,-2368.659014,-9474.636058,1225.752797
852.699604,-1998.556043,-9992.780217,1532.190996
852.699917,-2072.576638,-9474.636058,1455.581446
852.700229,-2072.576638,-9622.677246,1378.971896
852.700542,-1998.556043,-9030.512492,1225.752797
852.700855,-1924.535449,-9474.636058,1072.533697
852.701168,-1924.535449,-8660.409521,689.485948
852.701480,-3108.864956,-8364.327145,689.485948
852.701793,-3775.050304,-8586.388927,766.095498
852.702106,-3552.988522,-8660.409521,536.266849
852.702418,-2516.700203,-8142.265362,229.828649
852.702731,-3256.906145,-8586.388927,1149.143247
852.703044,-3404.947333,-8734.430116,1991.848295
852.703356,-2738.761985,-9178.553681,1072.533697
852.703669,-2072.576638,-8882.471304,306.438199
852.703982,-2368.659014,-9844.739029,1455.581446
852.704295,-2294.638420,-9696.697840,1072.533697
852.704607,-2146.597232,-9696.697840,1072.533697
852.704920,-2664.741391,-9474.636058,689.485948
852.705233,-3404.947333,-9474.636058,766.095498
852.705545,-3923.091493,-8660.409521,153.219100
852.705858,-4737.318029,-8142.265362,536.266849
852.706171,-5107.421000,-7994.224174,306.438199
852.706483,-4959.379811,-8142.265362,0.000000
852.706796,-5181.441594,-7846.182985,306.438199
852.707109,-5921.647536,-8068.244768,919.314598
852.707422,-5551.544565,-7846.182985,766.095498
852.707734,-3997.112087,-8216.285956,306.438199
852.708047,-4737.318029,-8734.430116,153.219100
852.708360,-4737.318029,-8956.491898,536.266849
852.708672,-4441.235652,-8956.491898,995.924147
852.708985,-4515.256246,-8438.347739,995.924147
852.709298,-5033.400406,-9030.512492,1455.581446
852.709610,-4811.338623,-8586.388927,612.876398
852.709923,-4885.359217,-8438.347739,383.047749
852.710236,-5033.400406,-8364.327145,919.314598
852.710549,-5033.400406,-8142.265362,153.219100
852.710861,-4663.297435,-7624.121203,153.219100
852.711174,-5255.462188,-7772.162391,689.485948
852.711487,-5033.400406,-7994.224174,1072.533697
852.711799,-4293.194464,-8586.388927,919.314598
852.712112,-3627.009116,-8290.306550,919.314598
852.712425,-3997.112087,-9178.553681,2145.067394
852.712738,-3404.947333,-8512.368333,1608.800546
852.713050,-3256.906145,-8364.327145,1532.190996
852.713363,-3552.988522,-8586.388927,1685.410096
852.713676,-3997.112087,-9252.574275,1302.362347
852.713988,-3923.091493,-8438.347739,459.657299
852.714301,-4737.318029,-8364.327145,536.266849
852.714614,-5181.441594,-8290.306550,766.095498
852.714926,-4515.256246,-8364.327145,536.266849
852.715239,-3923.091493,-8142.265362,0.000000
852.715552,-4071.132681,-8586.388927,919.314598
852.715865,-4071.132681,-8438.347739,1149.143247
852.716177,-2812.782580,-8882.471304,612.876398
852.716490,-2368.659014,-8586.388927,919.314598
852.716803,-2368.659014,-9474.636058,1991.848295
852.717115,-2072.576638,-9622.677246,2068.457845
852.717428,-1998.556043,-9252.574275,2451.505594
852.717741,-2812.782580,-9252.574275,2374.896044
852.718053,-3108.864956,-8586.388927,842.705048
852.718366,-3330.926739,-8734.430116,536.266849
852.718679,-4441.235652,-8290.306550,306.438199
852.718992,-4737.318029,-8660.409521,0.000000
852.719304,-4589.276840,-7994.224174,-919.314598
852.719617,-4441.235652,-8290.306550,-229.828649
852.719930,-4589.276840,-8512.368333,536.266849
852.720242,-3997.112087,-8956.491898,459.657299
852.720555,-2590.720797,-8660.409521,1072.533697
852.720868,-2664.741391,-9474.636058,1991.848295
852.721180,-1924.535449,-9326.594869,2298.286494
852.721493,-2220.617826,-9474.636058,1608.800546
852.721806,-2590.720797,-8882.471304,2298.286494
852.722119,-3108.864956,-9474.636058,1685.410096
852.722431,-3108.864956,-8512.368333,612.876398
852.722744,-3627.009116,-8364.327145,995.924147
852.723057,-5033.400406,-8438.347739,1225.752797
852.723369,-5329.482782,-8734.430116,76.609550
852.723682,-4959.379811,-7550.100608,-229.828649
852.723995,-5699.585753,-7994.224174,766.095498
852.724307,-5477.523971,-8660.409521,766.095498
852.724620,-4959.379811,-8956.491898,306.438199
852.724933,-4885.359217,-8290.306550,459.657299
852.725246,-4663.297435,-8882.471304,1838.629195
852.725558,-4145.153275,-8364.327145,1455.581446
852.725871,-4071.132681,-8660.409521,1608.800546
852.726184,-4293.194464,-8438.347739,1608.800546
852.726496,-4367.215058,-8808.450710,1072.533697
852.726809,-4293.194464,-8364.327145,383.047749
852.727122,-4811.338623,-7994.224174,689.485948
852.727434,-5255.462188,-8142.265362,1149.143247
852.727747,-5329.482782,-8438.347739,306.438199
852.728060,-4737.318029,-8216.285956,306.438199
852.728373,-4959.379811,-7920.203579,229.828649
852.728685,-4737.318029,-8660.409521,459.657299
852.728998,-3923.091493,-8660.409521,0.000000
852.729311,-3701.029710,-8956.491898,842.705048
852.729623,-2812.782580,-9030.512492,2145.067394
852.729936,-2886.803174,-9326.594869,1838.629195
852.730249,-3182.885551,-8660.409521,1991.848295
852.730561,-3552.988522,-9400.615463,1455.581446
852.730874,-2886.803174,-9104.533087,919.314598
852.731187,-3552.988522,-8808.450710,842.705048
852.731500,-3849.070898,-8068.244768,689.485948
852.731812,-4219.173869,-8512.368333,689.485948
852.732125,-3182.885551,-8068.244768,0.000000
852.732438,-4071.132681,-8142.265362,459.657299
852.732750,-4145.153275,-8290.306550,842.705048
852.733063,-3404.947333,-8586.388927,995.924147
852.733376,-2886.803174,-8808.450710,842.705048
852.733689,-3034.844362,-9622.677246,1532.190996
852.734001,-2368.659014,-9252.574275,1302.362347
852.734314,-2960.823768,-9548.656652,1302.362347
852.734627,-3034.844362,-9252.574275,689.485948
852.734939,-3552.988522,-9104.533087,1072.533697
852.735252,-2886.803174,-9104.533087,689.485948
852.735565,-4071.132681,-8956.491898,689.485948
852.735877,-4737.318029,-8586.388927,1378.971896
852.736190,-4737.318029,-8808.450710,536.266849
852.736503,-4293.194464,-7994.224174,0.000000
852.736816,-4737.318029,-8068.244768,689.485948
852.737128,-4737.318029,-8290.306550,229.828649
852.737441,-3404.947333,-8586.388927,536.266849
852.737754,-3330.926739,-8216.285956,459.657299
852.738066,-3923.091493,-9178.553681,1915.238745
852.738379,-3256.906145,-9252.574275,1532.190996
852.738692,-2442.679609,-9400.615463,995.924147
852.739004,-3478.967927,-8956.491898,1378.971896
852.739317,-4959.379811,-8808.450710,2298.286494
852.739630,-3923.091493,-9030.512492,612.876398
852.739943,-4219.173869,-7772.162391,229.828649
852.740255,-5329.482782,-7994.224174,1378.971896
852.740568,-6291.750507,-8438.347739,766.095498
852.740881,-5107.421000,-8808.450710,-153.219100
852.741193,-4367.215058,-8364.327145,0.000000
852.741506,-4515.256246,-8364.327145,383.047749
852.741819,-4737.318029,-7994.224174,229.828649
852.742131,-4737.318029,-9104.533087,1378.971896
852.742444,-2886.803174,-9178.553681,1378.971896
852.742757,-1924.535449,-8660.409521,842.705048
852.743070,-3182.885551,-8438.347739,1838.629195
852.743382,-5181.441594,-9252.574275,1915.238745
852.743695,-4071.132681,-8438.347739,1225.752797
852.744008,-3923.091493,-8512.368333,842.705048
852.744320,-4959.379811,-8512.368333,995.924147
852.744633,-5551.544565,-8734.430116,383.047749
852.744946,-4367.215058,-7846.182985,-306.438199
852.745258,-4811.338623,-8068.244768,689.485948
852.745571,-5551.544565,-8586.388927,1149.143247
852.745884,-4441.235652,-9104.533087,766.095498
852.746197,-4145.153275,-8586.388927,459.657299
852.746509,-4663.297435,-9178.553681,1378.971896
852.746822,-3256.906145,-8734.430116,689.485948
852.747135,-2368.659014,-9400.615463,1838.629195
852.747447,-2294.638420,-7772.162391,2298.286494
852.747760,-2590.720797,-8438.347739,2068.457845
852.748073,-3404.947333,-8734.430116,689.485948
852.748385,-4219.173869,-9326.594869,153.219100
852.748698,-3701.029710,-8882.471304,0.000000
852.749011,-3404.947333,-8660.409521,612.876398
852.749324,-4071.132681,-8734.430116,1225.752797
852.749636,-4811.338623,-9030.512492,1685.410096
852.749949,-3330.926739,-8956.491898,1455.581446
852.750262,-3034.844362,-8882.471304,536.266849
852.750574,-3478.967927,-8882.471304,919.314598
852.750887,-3478.967927,-9104.533087,1149.143247
852.751200,-2516.700203,-8734.430116,919.314598
852.751512,-2812.782580,-8512.368333,1455.581446
852.751825,-3478.967927,-9252.574275,1991.848295
852.752138,-2886.803174,-8438.347739,1532.190996
852.752451,-3701.029710,-7994.224174,536.266849
852.752763,-3849.070898,-8142.265362,-306.438199
852.753076,-3775.050304,-8660.409521,0.000000
852.753389,-3923.091493,-8808.450710,306.438199
852.753701,-3923.091493,-8808.450710,1378.971896
852.754014,-4293.194464,-8512.368333,1608.800546
852.754327,-3256.906145,-9770.718434,1225.752797
852.754639,-2738.761985,-9696.697840,1149.143247
852.754952,-3034.844362,-9400.615463,1378.971896
852.755265,-2516.700203,-9252.574275,1685.410096
852.755578,-2960.823768,-9104.533087,1532.190996
852.755890,-3627.009116,-8512.368333,1532.190996
852.756203,-4737.318029,-8512.368333,1762.019645
852.756516,-4737.318029,-7994.224174,536.266849
852.756828,-5033.400406,-8216.285956,612.876398
852.757141,-4737.318029,-7846.182985,76.609550
852.757454,-4737.318029,-7846.182985,0.000000
852.757767,-5033.400406,-7624.121203,459.657299
852.758079,-4663.297435,-8364.327145,919.314598
852.758392,-3478.967927,-8734.430116,536.266849
852.758705,-2738.761985,-9178.553681,1149.143247
852.759017,-3256.906145,-9104.533087,1072.533697
852.759330,-3552.988522,-9918.759623,2068.457845
852.759643,-2220.617826,-9770.718434,1532.190996
852.759955,-1924.535449,-9696.697840,1378.971896
852.760268,-2220.617826,-9030.512492,1532.190996
852.760581,-3552.988522,-9252.574275,1685.410096
852.760894,-3923.091493,-8364.327145,766.095498
852.761206,-4663.297435,-8438.347739,76.609550
852.761519,-4737.318029,-7920.203579,0.000000
852.761832,-4589.276840,-8142.265362,0.000000
852.762144,-4663.297435,-7698.141797,153.219100
852.762457,-4959.379811,-8068.244768,1149.143247
852.762770,-4589.276840,-8438.347739,766.095498
852.763082,-3256.906145,-8882.471304,153.219100
852.763395,-2590.720797,-8586.388927,76.609550
852.763708,-2960.823768,-8734.430116,919.314598
852.764021,-3478.967927,-9252.574275,1915.238745
852.764333,-2960.823768,-9474.636058,2298.286494
852.764646,-2442.679609,-9326.594869,2451.505594
852.764959,-2516.700203,-8808.450710,1378.971896
852.765271,-4441.235652,-8586.388927,1072.533697
852.765584,-4959.379811,-8734.430116,612.876398
852.765897,-4071.132681,-8956.491898,-306.438199
852.766209,-4589.276840,-7105.977043,536.266849
852.766522,-6809.894666,-7105.977043,1378.971896
852.766835,-7476.080014,-8216.285956,1455.581446
852.767148,-5255.462188,-8956.491898,-842.705048
852.767460,-4219.173869,-8216.285956,-766.095498
852.767773,-6069.688724,-8660.409521,1455.581446
852.768086,-5625.565159,-8660.409521,1532.190996
852.768398,-4441.235652,-8142.265362,536.266849
852.768711,-4293.194464,-7846.182985,1532.190996
852.769024,-5181.441594,-9178.553681,689.485948
852.769336,-4737.318029,-8586.388927,-153.219100
852.769649,-4737.318029,-8142.265362,612.876398
852.769962,-4589.276840,-8068.244768,1072.533697
852.770275,-4737.318029,-8660.409521,612.876398
852.770587,-4811.338623,-8364.327145,153.219100
852.770900,-4811.338623,-7920.203579,1915.238745
852.771213,-3997.112087,-8142.265362,1072.533697
852.771525,-3775.050304,-8660.409521,536.266849
852.771838,-3997.112087,-8808.450710,306.438199
852.772151,-4071.132681,-8882.471304,2145.067394
852.772463,-3256.906145,-9104.533087,1762.019645
852.772776,-3627.009116,-9030.512492,1302.362347
852.773089,-3404.947333,-9326.594869,1302.362347
852.773402,-3775.050304,-8882.471304,919.314598
852.773714,-3701.029710,-7846.182985,229.828649
852.774027,-4663.297435,-7624.121203,306.438199
852.774340,-4737.318029,-8142.265362,766.095498
852.774652,-4071.132681,-8438.347739,383.047749
852.774965,-3627.009116,-8364.327145,459.657299
852.775278,-3404.947333,-8956.491898,919.314598
852.775590,-3182.885551,-8956.491898,612.876398
852.775903,-2590.720797,-8734.430116,612.876398
852.776216,-1554.432478,-9474.636058,1608.800546
852.776529,-2220.617826,-9474.636058,1915.238745
852.776841,-2664.741391,-9474.636058,1838.629195
852.777154,-3182.885551,-9474.636058,1762.019645
852.777467,-3330.926739,-9400.615463,1378.971896
852.777779,-3627.009116,-9178.553681,612.876398
852.778092,-4663.297435,-8660.409521,306.438199
852.778405,-4737.318029,-8142.265362,766.095498
852.778717,-4515.256246,-8438.347739,306.438199
852.779030,-4515.256246,-7994.224174,-229.828649
852.779343,-4145.153275,-7994.224174,153.219100
852.779656,-3923.091493,-8956.491898,766.095498
852.779968,-3108.864956,-9030.512492,766.095498
852.780281,-2294.638420,-8956.491898,689.485948
852.780594,-2368.659014,-9474.636058,1991.848295
852.780906,-2368.659014,-8956.491898,995.924147
852.781219,-1702.473667,-9252.574275,1608.800546
852.781532,-2368.659014,-8882.471304,1762.019645
852.781845,-3627.009116,-9474.636058,1915.238745
852.782157,-4219.173869,-9474.636058,1072.533697
852.782470,-4737.318029,-9030.512492,612.876398
852.782783,-5181.441594,-8586.388927,1072.533697
852.783095,-5477.523971,-8216.285956,153.219100
852.783408,-5329.482782,-7994.224174,-459.657299
852.783721,-5403.503377,-7994.224174,536.266849
852.784033,-5403.503377,-7920.203579,0.000000
852.784346,-4589.276840,-8068.244768,0.000000
852.784659,-4071.132681,-8364.327145,383.047749
852.784972,-3701.029710,-8956.491898,1685.410096
852.785284,-3256.906145,-8956.491898,2068.457845
852.785597,-3552.988522,-8438.347739,2298.286494
852.785910,-4145.153275,-8142.265362,2068.457845
852.786222,-4589.276840,-8364.327145,1455.581446
852.786535,-4293.194464,-8586.388927,536.266849
852.786848,-5107.421000,-7994.224174,383.047749
852.787160,-5329.482782,-8512.368333,766.095498
852.787473,-5699.585753,-8216.285956,536.266849
852.787786,-5551.544565,-7994.224174,306.438199
852.788099,-5551.544565,-8142.265362,229.828649
852.788411,-5033.400406,-8660.409521,76.609550
852.788724,-3849.070898,-8512.368333,-689.485948
852.789037,-3404.947333,-8882.471304,919.314598
852.789349,-3478.967927,-8586.388927,1915.238745
852.789662,-3256.906145,-8808.450710,1915.238745
852.789975,-3330.926739,-8142.265362,1838.629195
852.790287,-3627.009116,-8512.368333,1915.238745
852.790600,-3108.864956,-8290.306550,1225.752797
852.790913,-3330.926739,-8882.471304,995.924147
852.791226,-4367.215058,-7624.121203,1149.143247
852.791538,-4663.297435,-8660.409521,842.705048
852.791851,-4219.173869,-8216.285956,306.438199
852.792163,-4219.173869,-8882.471304,766.095498
852.792476,-3923.091493,-8956.491898,612.876398
852.792789,-3182.885551,-9326.594869,0.000000
852.793101,-2516.700203,-8808.450710,229.828649
852.793414,-3256.906145,-9326.594869,1838.629195
852.793727,-2812.782580,-9252.574275,1685.410096
852.794039,-2664.741391,-9030.512492,1915.238745
852.794352,-3330.926739,-9030.512492,2145.067394
852.794664,-3775.050304,-9030.512492,1685.410096
852.794977,-3775.050304,-8438.347739,1072.533697
852.795290,-4441.235652,-7550.100608,612.876398
852.795602,-4367.215058,-7772.162391,383.047749
852.795915,-4441.235652,-7920.203579,-383.047749
852.796228,-4441.235652,-7550.100608,0.000000
852.796540,-4589.276840,-8586.388927,536.266849
852.796853,-3256.906145,-9178.553681,153.219100
852.797165,-2220.617826,-9696.697840,76.609550
852.797478,-2590.720797,-9548.656652,995.924147
852.797791,-2368.659014,-10288.862594,2604.724693
852.798103,-2294.638420,-9992.780217,1608.800546
852.798416,-2146.597232,-8956.491898,2221.676944
852.798729,-2960.823768,-9622.677246,1762.019645
852.799041,-3552.988522,-9030.512492,689.485948
852.799354,-4441.235652,-8882.471304,383.047749
852.799667,-4885.359217,-7994.224174,842.705048
852.799979,-5329.482782,-7920.203579,842.705048
852.800292,-5329.482782,-7254.018232,0.000000
852.800604,-5847.626942,-7698.141797,76.609550
852.800917,-5403.503377,-8364.327145,-229.828649
852.801230,-4737.318029,-8586.388927,-306.438199
852.801542,-3330.926739,-8438.347739,-153.219100
852.801855,-3478.967927,-9252.574275,1149.143247
852.802168,-3034.844362,-9252.574275,1455.581446
852.802480,-2146.597232,-9474.636058,1455.581446
852.802793,-2442.679609,-8586.388927,1532.190996
852.803105,-2886.803174,-9474.636058,1991.848295
852.803418,-2738.761985,-9400.615463,612.876398
852.803731,-3849.070898,-9030.512492,689.485948
852.804043,-4367.215058,-8660.409521,995.924147
852.804356,-4367.215058,-8364.327145,383.047749
852.804669,-4071.132681,-7846.182985,0.000000
852.804981,-4737.318029,-7920.203579,459.657299
852.805294,-3997.112087,-8364.327145,76.609550
852.805606,-2368.659014,-8660.409521,0.000000
852.805919,-2072.576638,-8438.347739,919.314598
852.806232,-2442.679609,-9104.533087,1838.629195
852.806544,-1628.453072,-9178.553681,1302.362347
852.806857,-1480.411884,-9474.636058,1455.581446
852.807170,-2072.576638,-9622.677246,1455.581446
852.807482,-2294.638420,-9474.636058,842.705048
852.807795,-2294.638420,-9104.533087,612.876398
852.808107,-3182.885551,-8882.471304,1072.533697
852.808420,-2516.700203,-8956.491898,919.314598
852.808733,-2368.659014,-9326.594869,0.000000
852.809045,-2886.803174,-9178.553681,536.266849
852.809358,-3701.029710,-9400.615463,1378.971896
852.809671,-2738.761985,-9474.636058,919.314598
852.809983,-1406.391290,-9474.636058,612.876398
852.810296,-2072.576638,-9992.780217,1455.581446
852.810609,-2516.700203,-9548.656652,2221.676944
852.810921,-2146.597232,-9474.636058,1302.362347
852.811234,-2368.659014,-9178.553681,995.924147
852.811546,-3108.864956,-9030.512492,766.095498
852.811859,-2960.823768,-8808.450710,229.828649
852.812172,-3997.112087,-8956.491898,459.657299
852.812484,-3701.029710,-8438.347739,689.485948
852.812797,-3627.009116,-8068.244768,612.876398
852.813110,-3330.926739,-8216.285956,995.924147
852.813422,-4219.173869,-8660.409521,1378.971896
852.813735,-3552.988522,-8956.491898,1225.752797
852.814047,-2664.741391,-9474.636058,842.705048
852.814360,-2220.617826,-9030.512492,689.485948
852.814673,-2960.823768,-9400.615463,2451.505594
852.814985,-3108.864956,-8956.491898,1455.581446
852.815298,-1998.556043,-9474.636058,995.924147
852.815611,-3034.844362,-8660.409521,1455.581446
852.815923,-3923.091493,-8956.491898,1608.800546
852.816236,-4145.153275,-8216.285956,689.485948
852.816548,-4959.379811,-8364.327145,459.657299
852.816861,-5551.544565,-8068.244768,536.266849
852.817174,-5329.482782,-7994.224174,383.047749
852.817486,-5181.441594,-7698.141797,0.000000
852.817799,-5107.421000,-8068.244768,919.314598
852.818112,-4737.318029,-8364.327145,536.266849
852.818424,-3478.967927,-8882.471304,0.000000
852.818737,-3034.844362,-8586.388927,612.876398
852.819049,-3256.906145,-9030.512492,2068.457845
852.819362,-2442.679609,-9400.615463,1991.848295
852.819675,-2220.617826,-9474.636058,1532.190996
852.819987,-2590.720797,-8882.471304,1302.362347
852.820300,-2886.803174,-8660.409521,1225.752797
852.820613,-3701.029710,-8956.491898,383.047749
852.820925,-4293.194464,-8586.388927,306.438199
852.821238,-3923.091493,-8660.409521,0.000000
852.821551,-3701.029710,-8586.388927,0.000000
852.821863,-4145.153275,-8586.388927,76.609550
852.822176,-4293.194464,-8290.306550,536.266849
852.822488,-2812.782580,-8734.430116,229.828649
852.822801,-1998.556043,-9474.636058,842.705048
852.823114,-2220.617826,-9474.636058,1225.752797
852.823426,-1776.494261,-9770.718434,1991.848295
852.823739,-1628.453072,-9400.615463,1532.190996
852.824052,-1850.514855,-9400.615463,1915.238745
852.824364,-2368.659014,-9252.574275,1455.581446
852.824677,-1554.432478,-9400.615463,842.705048
852.824989,-2664.741391,-8882.471304,689.485948
852.825302,-3552.988522,-9104.533087,229.828649
852.825615,-3256.906145,-9178.553681,0.000000
852.825927,-3330.926739,-8808.450710,-306.438199
852.826240,-3775.050304,-8660.409521,919.314598
852.826553,-3478.967927,-9030.512492,766.095498
852.826865,-2146.597232,-9622.677246,0.000000
852.827178,-2368.659014,-9252.574275,229.828649
852.827490,-2294.638420,-9622.677246,1991.848295
852.827803,-1850.514855,-9622.677246,1378.971896
852.828116,-1850.514855,-9770.718434,1838.629195
852.828428,-1924.535449,-9252.574275,2145.067394
852.828741,-2590.720797,-9696.697840,1838.629195
852.829054,-2960.823768,-8660.409521,612.876398
852.829366,-4219.173869,-8068.244768,919.314598
852.829679,-4145.153275,-8660.409521,536.266849
852.829991,-4145.153275,-8438.347739,-459.657299
852.830304,-4367.215058,-8142.265362,229.828649
852.830617,-4885.359217,-8216.285956,536.266849
852.830929,-4071.132681,-8290.306550,0.000000
852.831242,-3330.926739,-8586.388927,459.657299
852.831555,-3108.864956,-9178.553681,995.924147
852.831867,-2886.803174,-9178.553681,1838.629195
852.832180,-2960.823768,-8956.491898,2068.457845
852.832492,-2442.679609,-9548.656652,1455.581446
852.832805,-3108.864956,-9400.615463,1378.971896
852.833118,-3775.050304,-8734.430116,919.314598
852.833430,-4589.276840,-8956.491898,842.705048
852.833743,-4367.215058,-8660.409521,229.828649
852.834056,-4219.173869,-8512.368333,-229.828649
852.834368,-5107.421000,-7624.121203,0.000000
852.834681,-4589.276840,-8364.327145,1762.019645
852.834994,-4071.132681,-8734.430116,612.876398
852.835306,-3330.926739,-8512.368333,229.828649
852.835619,-3552.988522,-7994.224174,919.314598
852.835931,-3701.029710,-9474.636058,1685.410096
852.836244,-1702.473667,-9030.512492,536.266849
852.836557,-1850.514855,-8142.265362,1685.410096
852.836869,-3552.988522,-8438.347739,1225.752797
852.837182,-4589.276840,-8956.491898,1532.190996
852.837495,-3034.844362,-8882.471304,153.219100
852.837807,-3034.844362,-8734.430116,459.657299
852.838120,-3775.050304,-8586.388927,153.219100
852.838432,-4737.318029,-8882.471304,306.438199
852.838745,-4737.318029,-7994.224174,306.438199
852.839058,-3627.009116,-8808.450710,1532.190996
852.839370,-2368.659014,-9400.615463,995.924147
852.839683,-2072.576638,-9696.697840,536.266849
852.839996,-1924.535449,-9178.553681,919.314598
852.840308,-1776.494261,-9696.697840,1991.848295
852.840621,-1628.453072,-9104.533087,1762.019645
852.840933,-2368.659014,-9400.615463,2451.505594
852.841246,-2664.741391,-9548.656652,2068.457845
852.841559,-2294.638420,-9030.512492,689.485948
852.841871,-2294.638420,-8956.491898,383.047749
852.842184,-3330.926739,-9178.553681,383.047749
852.842497,-3256.906145,-8586.388927,1302.362347
852.842809,-2960.823768,-8364.327145,689.485948
852.843122,-3478.967927,-8586.388927,0.000000
852.843434,-3997.112087,-9400.615463,0.000000
852.843747,-3404.947333,-9474.636058,-229.828649
852.844060,-2516.700203,-9252.574275,995.924147
852.844372,-2664.741391,-9400.615463,1991.848295
852.844685,-2294.638420,-9844.739029,2451.505594
852.844998,-2368.659014,-9178.553681,1762.019645
852.845310,-2738.761985,-9030.512492,1608.800546
852.845623,-3256.906145,-9252.574275,1378.971896
852.845936,-2886.803174,-8290.306550,76.609550
852.846248,-4071.132681,-8290.306550,536.266849
852.846561,-4515.256246,-7846.182985,459.657299
852.846873,-4441.235652,-8438.347739,0.000000
852.847186,-4515.256246,-8364.327145,-536.266849
852.847499,-4589.276840,-8882.471304,0.000000
852.847811,-4071.132681,-8956.491898,459.657299
852.848124,-3330.926739,-9474.636058,229.828649
852.848437,-3256.906145,-9252.574275,612.876398
852.848749,-3256.906145,-9548.656652,1838.629195
852.849062,-2886.803174,-9326.594869,1608.800546
852.849374,-2886.803174,-9178.553681,2451.505594
852.849687,-3330.926739,-8882.471304,1991.848295
852.850000,-3627.009116,-8956.491898,1225.752797
852.850312,-3330.926739,-8586.388927,76.609550
852.850625,-4441.235652,-7920.203579,-306.438199
852.850938,-4737.318029,-7254.018232,0.000000
852.851250,-4959.379811,-8068.244768,-153.219100
852.851563,-4293.194464,-7994.224174,-459.657299
852.851875,-4219.173869,-8364.327145,306.438199
852.852188,-4071.132681,-8956.491898,689.485948
852.852501,-3404.947333,-9178.553681,919.314598
852.852813,-3256.906145,-9178.553681,2068.457845
852.853126,-2664.741391,-9474.636058,3064.381992
852.853439,-1776.494261,-9400.615463,1838.629195
852.853751,-2368.659014,-8512.368333,2145.067394
852.854064,-2812.782580,-9030.512492,919.314598
852.854376,-3552.988522,-8882.471304,459.657299
852.854689,-3923.091493,-9030.512492,0.000000
852.855002,-4737.318029,-8586.388927,0.000000
852.855314,-3775.050304,-8586.388927,-383.047749
852.855627,-3182.885551,-8808.450710,0.000000
852.855940,-2812.782580,-8882.471304,383.047749
852.856252,-3034.844362,-8586.388927,1608.800546
852.856565,-2960.823768,-9104.533087,2068.457845
852.856878,-2294.638420,-9104.533087,2221.676944
852.857190,-1628.453072,-9770.718434,2068.457845
852.857503,-1628.453072,-9770.718434,2068.457845
852.857815,-2368.659014,-9178.553681,1762.019645
852.858128,-3404.947333,-8956.491898,2451.505594
852.858441,-4219.173869,-8956.491898,1455.581446
852.858753,-3256.906145,-8216.285956,0.000000
852.859066,-4441.235652,-8216.285956,-689.485948
852.859379,-5551.544565,-8068.244768,-689.485948
852.859691,-4367.215058,-8956.491898,-383.047749
852.860004,-2442.679609,-9178.553681,-459.657299
852.860316,-2146.597232,-8808.450710,536.266849
852.860629,-2590.720797,-8586.388927,1225.752797
852.860942,-2368.659014,-9770.718434,1762.019645
852.861254,-518.144159,-10140.821405,842.705048
852.861567,0.000000,-10436.903782,1302.362347
852.861880,-1184.329507,-9992.780217,2528.115143
852.862192,-1998.556043,-9992.780217,2604.724693
852.862505,-1702.473667,-9696.697840,1608.800546
852.862817,-2368.659014,-9474.636058,766.095498
852.863130,-3256.906145,-9104.533087,306.438199
852.863443,-3923.091493,-9178.553681,0.000000
852.863755,-3997.112087,-8142.265362,-536.266849
852.864068,-3478.967927,-7920.203579,-229.828649
852.864381,-3627.009116,-8364.327145,76.609550
852.864693,-3775.050304,-8882.471304,1225.752797
852.865006,-3552.988522,-9104.533087,1455.581446
852.865318,-2442.679609,-8734.430116,1149.143247
852.865631,-1924.535449,-9474.636058,459.657299
852.865944,-3034.844362,-9918.759623,1608.800546
852.866256,-3256.906145,-9030.512492,1532.190996
852.866569,-2738.761985,-8734.430116,2374.896044
852.866882,-3923.091493,-9474.636058,1455.581446
852.867194,-4293.194464,-8882.471304,306.438199
852.867507,-4219.173869,-8734.430116,76.609550
852.867820,-4737.318029,-8068.244768,0.000000
852.868132,-4663.297435,-8364.327145,306.438199
852.868445,-4515.256246,-8290.306550,383.047749
852.868757,-4145.153275,-8438.347739,689.485948
852.869070,-4367.215058,-8290.306550,689.485948
852.869383,-3923.091493,-9252.574275,383.047749
852.869695,-2516.700203,-9326.594869,153.219100
852.870008,-2516.700203,-9622.677246,919.314598
852.870321,-2738.761985,-9030.512492,1762.019645
852.870633,-2590.720797,-8586.388927,1685.410096
852.870946,-2886.803174,-9030.512492,2145.067394
852.871258,-3330.926739,-9178.553681,1838.629195
852.871571,-3108.864956,-8660.409521,612.876398
852.871884,-3701.029710,-8512.368333,689.485948
852.872196,-4589.276840,-8290.306550,612.876398
852.872509,-4515.256246,-8216.285956,612.876398
852.872822,-3478.967927,-7994.224174,229.828649
852.873134,-3701.029710,-8068.244768,1455.581446
852.873447,-3627.009116,-9030.512492,-153.219100
852.873759,-2812.782580,-9400.615463,459.657299
852.874072,-2442.679609,-9400.615463,689.485948
852.874385,-2812.782580,-10066.800811,1915.238745
852.874697,-2368.659014,-9548.656652,2145.067394
852.875010,-2072.576638,-9474.636058,2374.896044
852.875323,-2442.679609,-9252.574275,2681.334243
852.875635,-3034.844362,-8956.491898,1378.971896
852.875948,-2664.741391,-8290.306550,0.000000
852.876260,-4219.173869,-8068.244768,229.828649
852.876573,-3923.091493,-8142.265362,536.266849
852.876886,-3552.988522,-8216.285956,76.609550
852.877198,-3034.844362,-8438.347739,306.438199
852.877511,-3627.009116,-8290.306550,536.266849
852.877824,-2516.700203,-8956.491898,383.047749
852.878136,-1998.556043,-9400.615463,-229.828649
852.878449,-1332.370696,-9992.780217,612.876398
852.878762,-1776.494261,-9918.759623,1838.629195
852.879074,-1850.514855,-9622.677246,2068.457845
852.879387,-1924.535449,-9622.677246,2451.505594
852.879699,-2886.803174,-10066.800811,1915.238745
852.880012,-2664.741391,-9326.594869,612.876398
852.880325,-4145.153275,-8882.471304,1225.752797
852.880637,-4293.194464,-8364.327145,0.000000
852.880950,-4071.132681,-8734.430116,459.657299
852.881263,-3552.988522,-8142.265362,-229.828649
852.881575,-3849.070898,-8142.265362,306.438199
852.881888,-3775.050304,-8438.347739,842.705048
852.882200,-2590.720797,-9252.574275,612.876398
852.882513,-1702.473667,-8438.347739,0.000000
852.882826,-1850.514855,-9474.636058,1302.362347
852.883138,-2146.597232,-9622.677246,1685.410096
852.883451,-2294.638420,-9696.697840,1915.238745
852.883764,-2886.803174,-9474.636058,2068.457845
852.884076,-3849.070898,-9696.697840,1762.019645
852.884389,-3775.050304,-9252.574275,536.266849
852.884701,-5699.585753,-8734.430116,766.095498
852.885014,-5403.503377,-8364.327145,766.095498
852.885327,-5181.441594,-8216.285956,153.219100
852.885639,-5107.421000,-7698.141797,-536.266849
852.885952,-5403.503377,-7624.121203,536.266849
852.886265,-4737.318029,-7920.203579,306.438199
852.886577,-3701.029710,-8586.388927,0.000000
852.886890,-3404.947333,-8364.327145,306.438199
852.887202,-3330.926739,-9252.574275,1685.410096
852.887515,-2886.803174,-9252.574275,1838.629195
852.887828,-2294.638420,-8956.491898,2145.067394
852.888140,-3034.844362,-9474.636058,2145.067394
852.888453,-3182.885551,-9178.553681,1378.971896
852.888766,-3404.947333,-8956.491898,689.485948
852.889078,-4441.235652,-8586.388927,766.095498
852.889391,-3849.070898,-8586.388927,459.657299
852.889704,-3330.926739,-8808.450710,153.219100
852.890016,-3404.947333,-8512.368333,612.876398
852.890329,-3552.988522,-8586.388927,1072.533697
852.890641,-2664.741391,-9030.512492,306.438199
852.890954,-1924.535449,-9178.553681,76.609550
852.891267,-1554.432478,-9474.636058,842.705048
852.891579,-1480.411884,-9918.759623,1608.800546
852.891892,-1184.329507,-9992.780217,1608.800546
852.892205,-1480.411884,-9104.533087,1608.800546
852.892517,-1924.535449,-10066.800811,2221.676944
852.892830,-1702.473667,-9178.553681,1762.019645
852.893142,-2516.700203,-8956.491898,995.924147
852.893455,-3627.009116,-8956.491898,995.924147
852.893768,-3627.009116,-8882.471304,689.485948
852.894080,-3478.967927,-8216.285956,0.000000
852.894393,-3997.112087,-8290.306550,919.314598
852.894709,-3552.988522,-8660.409521,0.000000
852.895021,-2960.823768,-9178.553681,0.000000
852.895334,-2368.659014,-8808.450710,-383.047749
852.895647,-2886.803174,-9622.677246,1149.143247
852.895960,-2738.761985,-9178.553681,1378.971896
852.896272,-2516.700203,-9474.636058,1455.581446
852.896585,-3182.885551,-9252.574275,1915.238745
852.896898,-3552.988522,-9474.636058,1455.581446
852.897211,-4071.132681,-8808.450710,612.876398
852.897523,-5625.565159,-8586.388927,766.095498
852.897836,-5773.606348,-7698.141797,689.485948
852.898149,-5847.626942,-7920.203579,0.000000
852.898461,-6217.729913,-7624.121203,-306.438199
852.898774,-6513.812290,-8216.285956,153.219100
852.899087,-5329.482782,-8142.265362,-383.047749
852.899400,-4441.235652,-8290.306550,-153.219100
852.899712,-4885.359217,-8068.244768,919.314598
852.900025,-4515.256246,-8808.450710,1302.362347
852.900338,-3701.029710,-8882.471304,1302.362347
852.900651,-3701.029710,-8512.368333,1991.848295
852.900963,-4589.276840,-9104.533087,2374.896044
852.901276,-4441.235652,-8512.368333,1225.752797
852.901589,-4663.297435,-8808.450710,1149.143247
852.901901,-5625.565159,-8216.285956,1532.190996
852.902214,-5625.565159,-7772.162391,919.314598
852.902527,-5477.523971,-7550.100608,153.219100
852.902840,-6069.688724,-7772.162391,229.828649
852.903152,-5551.544565,-7920.203579,229.828649
852.903465,-4441.235652,-8660.409521,0.000000
852.903778,-3701.029710,-8512.368333,306.438199
852.904091,-3330.926739,-8734.430116,2145.067394
852.904403,-3034.844362,-9400.615463,1532.190996
852.904716,-2960.823768,-8882.471304,2145.067394
852.905029,-2294.638420,-8216.285956,1532.190996
852.905341,-3256.906145,-9326.594869,1685.410096
852.905654,-3330.926739,-8660.409521,1149.143247
852.905967,-4367.215058,-8734.430116,1225.752797
852.906280,-4293.194464,-8438.347739,766.095498
852.906592,-4441.235652,-7994.224174,229.828649
852.906905,-4441.235652,-7550.100608,612.876398
852.907218,-4219.173869,-8808.450710,459.657299
852.907531,-4145.153275,-8438.347739,689.485948
852.907843,-3108.864956,-9104.533087,459.657299
852.908156,-2516.700203,-8586.388927,612.876398
852.908469,-2886.803174,-9474.636058,2068.457845
852.908782,-2664.741391,-8808.450710,1838.629195
852.909094,-1776.494261,-8438.347739,995.924147
852.909407,-2220.617826,-9326.594869,1532.190996
852.909720,-3478.967927,-9030.512492,766.095498
852.910032,-3627.009116,-8956.491898,459.657299
852.910345,-4663.297435,-9030.512492,459.657299
852.910658,-4293.194464,-8586.388927,612.876398
852.910971,-4293.194464,-8882.471304,306.438199
852.911283,-4663.297435,-8660.409521,459.657299
852.911596,-4589.276840,-8734.430116,229.828649
852.911909,-3701.029710,-8660.409521,229.828649
852.912222,-2886.803174,-8956.491898,842.705048
852.912534,-2738.761985,-8956.491898,1455.581446
852.912847,-3108.864956,-9400.615463,2068.457845
852.913160,-2664.741391,-9104.533087,1302.362347
852.913472,-2516.700203,-8808.450710,1149.143247
852.913785,-3552.988522,-9104.533087,1225.752797
852.914098,-4219.173869,-8142.265362,689.485948
852.914411,-4441.235652,-8068.244768,459.657299
852.914723,-5255.462188,-8142.265362,766.095498
852.915036,-5625.565159,-8216.285956,919.314598
852.915349,-5403.503377,-8142.265362,229.828649
852.915662,-5699.585753,-8438.347739,536.266849
852.915974,-5625.565159,-8216.285956,766.095498
852.916287,-4737.318029,-9178.553681,153.219100
852.916600,-3627.009116,-8512.368333,612.876398
852.916912,-3849.070898,-8660.409521,1608.800546
852.917225,-3923.091493,-8586.388927,1838.629195
852.917538,-3478.967927,-8586.388927,1302.362347
852.917851,-3404.947333,-8290.306550,919.314598
852.918163,-4219.173869,-8956.491898,612.876398
852.918476,-3478.967927,-8216.285956,306.438199
852.918789,-5033.400406,-7994.224174,919.314598
852.919102,-4959.379811,-7846.182985,1378.971896
852.919414,-4811.338623,-7772.162391,536.266849
852.919727,-5033.400406,-8216.285956,459.657299
852.920040,-5329.482782,-8438.347739,459.657299
852.920353,-4737.318029,-8660.409521,536.266849
852.920665,-3627.009116,-9252.574275,0.000000
852.920978,-3478.967927,-9030.512492,1225.752797
852.921291,-3923.091493,-9252.574275,2221.676944
852.921603,-3404.947333,-9252.574275,2145.067394
852.921916,-2368.659014,-9030.512492,1455.581446
852.922229,-2960.823768,-9326.594869,1455.581446
852.922542,-3627.009116,-8586.388927,689.485948
852.922854,-3034.844362,-8142.265362,306.438199
852.923167,-3997.112087,-7920.203579,766.095498
852.923480,-3849.070898,-7846.182985,842.705048
852.923793,-4071.132681,-7920.203579,536.266849
852.924105,-4293.194464,-8216.285956,229.828649
852.924418,-3627.009116,-8586.388927,459.657299
852.924731,-4071.132681,-8808.450710,919.314598
852.925043,-3034.844362,-9474.636058,306.438199
852.925356,-2812.782580,-9474.636058,1225.752797
852.925669,-3108.864956,-9474.636058,2298.286494
852.925982,-2664.741391,-9548.656652,1608.800546
852.926294,-2368.659014,-9400.615463,1608.800546
852.926607,-3997.112087,-9474.636058,1455.581446
852.926920,-3701.029710,-8586.388927,459.657299
852.927233,-3552.988522,-8956.491898,536.266849
852.927545,-4737.318029,-7846.182985,536.266849
852.927858,-5551.544565,-7920.203579,536.266849
852.928171,-4441.235652,-7846.182985,0.000000
852.928484,-4145.153275,-8216.285956,-306.438199
852.928796,-4737.318029,-7624.121203,76.609550
852.929109,-4737.318029,-8216.285956,995.924147
852.929422,-3256.906145,-8956.491898,919.314598
852.929734,-2886.803174,-9622.677246,1149.143247
852.930047,-3182.885551,-8808.450710,1685.410096
852.930360,-4219.173869,-9252.574275,2068.457845
852.930673,-3849.070898,-9548.656652,1608.800546
852.930985,-2812.782580,-9474.636058,1378.971896
852.931298,-2442.679609,-8512.368333,153.219100
852.931611,-5551.544565,-8290.306550,1225.752797
852.931924,-6661.853478,-7994.224174,1302.362347
852.932236,-5329.482782,-8216.285956,229.828649
852.932549,-3627.009116,-7920.203579,-459.657299
852.932862,-4737.318029,-8216.285956,0.000000
852.933174,-5181.441594,-8216.285956,0.000000
852.933487,-4071.132681,-8068.244768,612.876398
852.933800,-3256.906145,-8142.265362,1378.971896
852.934113,-3256.906145,-9548.656652,2451.505594
852.934425,-3701.029710,-9178.553681,2145.067394
852.934738,-2960.823768,-8808.450710,1532.190996
852.935051,-3256.906145,-9400.615463,842.705048
852.935364,-3256.906145,-8586.388927,536.266849
852.935676,-3923.091493,-8660.409521,919.314598
852.935989,-5477.523971,-7846.182985,1838.629195
852.936302,-5329.482782,-8216.285956,306.438199
852.936614,-4589.276840,-8734.430116,-1302.362347
852.936927,-4885.359217,-8882.471304,-612.876398
852.937240,-5403.503377,-8660.409521,766.095498
852.937553,-4293.194464,-8586.388927,1225.752797
852.937865,-3627.009116,-8364.327145,1225.752797
852.938178,-3552.988522,-9030.512492,2374.896044
852.938491,-3182.885551,-8586.388927,995.924147
852.938804,-2220.617826,-8512.368333,459.657299
852.939116,-1554.432478,-8586.388927,689.485948
852.939429,-2516.700203,-9252.574275,919.314598
852.939742,-2590.720797,-8364.327145,766.095498
852.940055,-3552.988522,-9104.533087,919.314598
852.940367,-3552.988522,-9326.594869,306.438199
852.940680,-2812.782580,-9326.594869,0.000000
852.940993,-3108.864956,-8808.450710,306.438199
852.941305,-3775.050304,-9178.553681,1378.971896
852.941618,-3849.070898,-8734.430116,1762.019645
852.941931,-3775.050304,-9030.512492,1838.629195
852.942244,-4071.132681,-8808.450710,1532.190996
852.942556,-4589.276840,-9252.574275,1991.848295
852.942869,-3997.112087,-8660.409521,1532.190996
852.943182,-3404.947333,-8438.347739,612.876398
852.943495,-3775.050304,-7846.182985,1072.533697
852.943807,-4515.256246,-8216.285956,1225.752797
852.944120,-4071.132681,-7846.182985,459.657299
852.944433,-4367.215058,-7994.224174,-612.876398
852.944745,-3849.070898,-8216.285956,-842.705048
852.945058,-3330.926739,-9104.533087,-536.266849
852.945371,-3108.864956,-9030.512492,0.000000
852.945684,-2886.803174,-9474.636058,2068.457845
852.945996,-2960.823768,-9400.615463,2681.334243
852.946309,-2738.761985,-9474.636058,3140.991542
852.946622,-3108.864956,-9474.636058,2451.505594
852.946935,-3478.967927,-9696.697840,2451.505594
852.947247,-3182.885551,-9252.574275,1225.752797
852.947560,-3701.029710,-8290.306550,995.924147
852.947873,-5699.585753,-8068.244768,1532.190996
852.948186,-5699.585753,-7105.977043,0.000000
852.948498,-5477.523971,-7550.100608,-995.924147
852.948811,-5551.544565,-7550.100608,-306.438199
852.949124,-5477.523971,-7994.224174,-919.314598
852.949436,-4515.256246,-8142.265362,-842.705048
852.949749,-3997.112087,-8364.327145,229.828649
852.950062,-3775.050304,-8438.347739,1608.800546
852.950375,-3478.967927,-9104.533087,2528.115143
852.950687,-2294.638420,-9474.636058,2451.505594
852.951000,-2368.659014,-9844.739029,2451.505594
852.951313,-2294.638420,-9548.656652,1455.581446
852.951626,-2368.659014,-9918.759623,1302.362347
852.951938,-3552.988522,-8734.430116,1915.238745
852.952251,-4589.276840,-8956.491898,2221.676944
852.952564,-3478.967927,-8290.306550,689.485948
852.952876,-3923.091493,-8142.265362,-306.438199
852.953189,-4959.379811,-7846.182985,-306.438199
852.953502,-5329.482782,-8586.388927,-766.095498
852.953815,-4367.215058,-8438.347739,-229.828649
852.954127,-4515.256246,-8364.327145,919.314598
852.954440,-4589.276840,-7994.224174,1915.238745
852.954753,-4885.359217,-9104.533087,2145.067394
852.955066,-4219.173869,-9104.533087,1302.362347
852.955378,-3478.967927,-9178.553681,995.924147
852.955691,-4145.153275,-8142.265362,2221.676944
852.956004,-4589.276840,-8808.450710,2681.334243
852.956316,-5181.441594,-8216.285956,1378.971896
852.956629,-5625.565159,-7624.121203,536.266849
852.956942,-5921.647536,-7698.141797,0.000000
852.957255,-6143.709319,-8142.265362,-383.047749
852.957567,-5329.482782,-7402.059420,-306.438199
852.957880,-5255.462188,-7846.182985,76.609550
852.958193,-5773.606348,-8512.368333,459.657299
852.958506,-4885.359217,-8216.285956,536.266849
852.958818,-4219.173869,-9030.512492,689.485948
852.959131,-3478.967927,-9030.512492,612.876398
852.959444,-3034.844362,-9400.615463,1149.143247
852.959757,-3478.967927,-10214.842000,1532.190996
852.960069,-3330.926739,-9252.574275,1915.238745
852.960382,-2812.782580,-8364.327145,2298.286494
852.960695,-4071.132681,-8586.388927,2145.067394
852.961007,-3775.050304,-8364.327145,1378.971896
852.961320,-3923.091493,-8364.327145,536.266849
852.961633,-3923.091493,-7624.121203,0.000000
852.961946,-4441.235652,-8068.244768,153.219100
852.962258,-4811.338623,-8216.285956,-153.219100
852.962571,-4515.256246,-8290.306550,689.485948
852.962884,-3923.091493,-8068.244768,766.095498
852.963197,-3775.050304,-9474.636058,612.876398
852.963509,-3182.885551,-9104.533087,229.828649
852.963822,-3404.947333,-9622.677246,1532.190996
852.964135,-3034.844362,-9474.636058,1762.019645
852.964447,-2516.700203,-9474.636058,1455.581446
852.964760,-2368.659014,-8808.450710,2145.067394
852.965073,-3775.050304,-9178.553681,2145.067394
852.965386,-2960.823768,-8142.265362,1455.581446
852.965698,-3923.091493,-7846.182985,766.095498
852.966011,-4515.256246,-8586.388927,995.924147
852.966324,-4441.235652,-8290.306550,536.266849
852.966637,-3923.091493,-7994.224174,459.657299
852.966949,-3997.112087,-8142.265362,0.000000
852.967262,-3849.070898,-8290.306550,153.219100
852.967575,-2886.803174,-8956.491898,153.219100
852.967888,-2368.659014,-8956.491898,919.314598
852.968200,-2590.720797,-9400.615463,1532.190996
852.968513,-2886.803174,-9844.739029,1378.971896
852.968826,-2738.761985,-9474.636058,1838.629195
852.969138,-3627.009116,-9770.718434,2451.505594
852.969451,-3849.070898,-8882.471304,1302.362347
852.969764,-3330.926739,-8290.306550,383.047749
852.970077,-4589.276840,-8512.368333,153.219100
852.970389,-5255.462188,-7846.182985,1608.800546
852.970702,-4219.173869,-7698.141797,0.000000
852.971015,-4071.132681,-8364.327145,229.828649
852.971328,-4441.235652,-8068.244768,383.047749
852.971640,-4441.235652,-8882.471304,536.266849
852.971953,-3775.050304,-8882.471304,153.219100
852.972266,-3108.864956,-9104.533087,1225.752797
852.972578,-3552.988522,-9548.656652,1608.800546
852.972891,-3849.070898,-9400.615463,1762.019645
852.973204,-4145.153275,-8956.491898,1685.410096
852.973517,-4737.318029,-9474.636058,1455.581446
852.973829,-4515.256246,-8438.347739,383.047749
852.974142,-5033.400406,-8512.368333,536.266849
852.974455,-5995.668130,-7994.224174,1302.362347
852.974768,-5773.606348,-7624.121203,1378.971896
852.975080,-5107.421000,-6957.935855,0.000000
852.975393,-5551.544565,-7624.121203,306.438199
852.975706,-5329.482782,-7402.059420,0.000000
852.976018,-4663.297435,-8438.347739,229.828649
852.976331,-3849.070898,-8068.244768,229.828649
852.976644,-3923.091493,-9104.533087,1072.533697
852.976957,-3256.906145,-8660.409521,1378.971896
852.977269,-3034.844362,-9252.574275,1532.190996
852.977582,-3182.885551,-9474.636058,1762.019645
852.977895,-3997.112087,-9696.697840,1225.752797
852.978208,-3701.029710,-9030.512492,919.314598
852.978520,-4811.338623,-8808.450710,1302.362347
852.978833,-4959.379811,-8290.306550,1302.362347
852.979146,-4663.297435,-8438.347739,536.266849
852.979459,-4145.153275,-8142.265362,0.000000
852.979771,-4589.276840,-8290.306550,459.657299
852.980084,-4145.153275,-7698.141797,306.438199
852.980397,-3182.885551,-8068.244768,229.828649
852.980709,-2516.700203,-8512.368333,689.485948
852.981022,-2442.679609,-9104.533087,1685.410096
852.981335,-2442.679609,-8660.409521,1378.971896
852.981648,-2442.679609,-8660.409521,2145.067394
852.981960,-3108.864956,-9178.553681,1608.800546
852.982273,-3552.988522,-7920.203579,766.095498
852.982586,-3849.070898,-9252.574275,1072.533697
852.982899,-4737.318029,-8956.491898,1225.752797
852.983211,-4515.256246,-9400.615463,766.095498
852.983524,-4145.153275,-8734.430116,459.657299
852.983837,-4737.318029,-8660.409521,995.924147
852.984149,-4219.173869,-8956.491898,995.924147
852.984462,-3404.947333,-9030.512492,459.657299
852.984775,-2294.638420,-8512.368333,306.438199
852.985088,-2220.617826,-8438.347739,995.924147
852.985400,-2220.617826,-8660.409521,1608.800546
852.985713,-1998.556043,-8734.430116,1762.019645
852.986026,-2146.597232,-8586.388927,1915.238745
852.986339,-3404.947333,-9400.615463,2068.457845
852.986651,-3478.967927,-8438.347739,612.876398
852.986964,-4589.276840,-8586.388927,766.095498
852.987277,-4959.379811,-8142.265362,1072.533697
852.987590,-5403.503377,-8586.388927,306.438199
852.987902,-5403.503377,-8512.368333,153.219100
852.988215,-5699.585753,-8808.450710,459.657299
852.988528,-5033.400406,-8956.491898,306.438199
852.988840,-4441.235652,-9548.656652,0.000000
852.989153,-3701.029710,-8734.430116,536.266849
852.989466,-3404.947333,-9252.574275,1302.362347
852.989779,-3256.906145,-8438.347739,1225.752797
852.990091,-2664.741391,-8956.491898,1072.533697
852.990404,-2738.761985,-8956.491898,1072.533697
852.990717,-3256.906145,-8956.491898,995.924147
852.991030,-3034.844362,-8586.388927,612.876398
852.991342,-4145.153275,-8438.347739,689.485948
852.991655,-4145.153275,-8660.409521,1302.362347
852.991968,-4367.215058,-8660.409521,842.705048
852.992280,-4071.132681,-8586.388927,459.657299
852.992593,-4219.173869,-9030.512492,612.876398
852.992906,-3404.947333,-9104.533087,229.828649
852.993219,-2664.741391,-9252.574275,153.219100
852.993531,-1998.556043,-9474.636058,612.876398
852.993844,-1702.473667,-9696.697840,459.657299
852.994157,-1480.411884,-8956.491898,1455.581446
852.994470,-1776.494261,-9400.615463,1072.533697
852.994782,-2368.659014,-9474.636058,766.095498
852.995095,-1924.535449,-8956.491898,306.438199
852.995408,-2516.700203,-8734.430116,689.485948
852.995720,-2886.803174,-9030.512492,919.314598
852.996033,-2590.720797,-9400.615463,689.485948
852.996346,-2812.782580,-8734.430116,536.266849
852.996658,-3478.967927,-8808.450710,995.924147
852.996971,-3182.885551,-8882.471304,1149.143247
852.997284,-2368.659014,-9844.739029,766.095498
852.997596,-2146.597232,-9548.656652,306.438199
852.997909,-2368.659014,-9992.780217,1302.362347
852.998222,-2368.659014,-9770.718434,1225.752797
852.998534,-2368.659014,-9548.656652,1149.143247
852.998847,-2072.576638,-9030.512492,1302.362347
852.999160,-2368.659014,-9622.677246,1072.533697
852.999472,-2442.679609,-8882.471304,536.266849
852.999785,-3478.967927,-8734.430116,689.485948
853.000098,-3701.029710,-8438.347739,1225.752797
853.000410,-3552.988522,-8512.368333,919.314598
853.000723,-3775.050304,-8364.327145,842.705048
853.001036,-4293.194464,-8734.430116,1072.533697
853.001348,-3923.091493,-8808.450710,1225.752797
853.001661,-3256.906145,-9400.615463,536.266849
853.001974,-3108.864956,-8660.409521,766.095498
853.002286,-3256.906145,-9252.574275,1608.800546
853.002599,-3108.864956,-9252.574275,1302.362347
853.002912,-3108.864956,-8956.491898,1378.971896
853.003224,-3256.906145,-9030.512492,1455.581446
853.003537,-3627.009116,-7994.224174,536.266849
853.003850,-3627.009116,-8586.388927,919.314598
853.004162,-5033.400406,-8142.265362,1072.533697
853.004475,-4515.256246,-8512.368333,1072.533697
853.004788,-4515.256246,-8142.265362,229.828649
853.005100,-5329.482782,-8068.244768,766.095498
853.005413,-5403.503377,-8216.285956,1149.143247
853.005726,-4441.235652,-8660.409521,689.485948
853.006038,-3108.864956,-8660.409521,612.876398
853.006351,-3256.906145,-8438.347739,2068.457845
853.006664,-3256.906145,-8734.430116,1838.629195
853.006976,-3182.885551,-9178.553681,1685.410096
853.007289,-2886.803174,-8660.409521,1378.971896
853.007602,-3256.906145,-9178.553681,919.314598
853.007914,-3256.906145,-8808.450710,306.438199
853.008227,-4071.132681,-8586.388927,612.876398
853.008540,-3775.050304,-8512.368333,76.609550
853.008852,-3108.864956,-8068.244768,383.047749
853.009165,-3627.009116,-8438.347739,383.047749
853.009478,-3923.091493,-9178.553681,536.266849
853.009790,-2738.761985,-9030.512492,383.047749
853.010103,-2368.659014,-9696.697840,766.095498
853.010416,-2294.638420,-9474.636058,1685.410096
853.010728,-2072.576638,-10066.800811,2221.676944
853.011041,-1702.473667,-9992.780217,2221.676944
853.011354,-1332.370696,-8956.491898,1762.019645
853.011666,-1554.432478,-9474.636058,1455.581446
853.011979,-2072.576638,-9622.677246,536.266849
853.012292,-2368.659014,-8956.491898,0.000000
853.012604,-3182.885551,-8586.388927,0.000000
853.012917,-3108.864956,-8808.450710,153.219100
853.013230,-3478.967927,-8734.430116,612.876398
853.013542,-3701.029710,-8734.430116,153.219100
853.013855,-2886.803174,-8882.471304,689.485948
853.014168,-2812.782580,-9474.636058,1072.533697
853.014480,-2368.659014,-9622.677246,612.876398
853.014793,-1850.514855,-9400.615463,1302.362347
853.015106,-1628.453072,-9918.759623,1838.629195
853.015418,-1702.473667,-9770.718434,1608.800546
853.015731,-1850.514855,-9548.656652,1838.629195
853.016044,-2294.638420,-9548.656652,995.924147
853.016356,-2812.782580,-9104.533087,1149.143247
853.016669,-3256.906145,-9104.533087,995.924147
853.016982,-4145.153275,-8956.491898,612.876398
853.017294,-3923.091493,-8438.347739,306.438199
853.017607,-4367.215058,-8068.244768,0.000000
853.017920,-4885.359217,-8512.368333,459.657299
853.018233,-4663.297435,-7846.182985,153.219100
853.018545,-3849.070898,-8882.471304,842.705048
853.018858,-3404.947333,-8660.409521,612.876398
853.019171,-3182.885551,-8808.450710,1225.752797
853.019483,-3478.967927,-8660.409521,1608.800546
853.019796,-3330.926739,-9178.553681,1532.190996
853.020109,-2664.741391,-8808.450710,1532.190996
853.020421,-3330.926739,-9474.636058,919.314598
853.020734,-4441.235652,-7920.203579,1455.581446
853.021047,-4885.359217,-9030.512492,1455.581446
853.021359,-3849.070898,-9030.512492,-229.828649
853.021672,-4071.132681,-8068.244768,-306.438199
853.021985,-5403.503377,-7920.203579,689.485948
853.022297,-5551.544565,-8956.491898,1149.143247
853.022610,-3256.906145,-8660.409521,0.000000
853.022923,-2590.720797,-8438.347739,76.609550
853.023235,-3552.988522,-8438.347739,1072.533697
853.023548,-4219.173869,-9030.512492,1991.848295
853.023861,-2590.720797,-8956.491898,1838.629195
853.024173,-1406.391290,-8882.471304,1532.190996
853.024486,-1850.514855,-8956.491898,1225.752797
853.024799,-3627.009116,-9104.533087,1225.752797
853.025111,-3923.091493,-8290.306550,995.924147
853.025424,-3256.906145,-8068.244768,1378.971896
853.025737,-3108.864956,-9326.594869,1378.971896
853.026049,-3849.070898,-9030.512492,0.000000
853.026362,-3923.091493,-8660.409521,383.047749
853.026675,-3478.967927,-8956.491898,689.485948
853.026987,-2368.659014,-9474.636058,459.657299
853.027300,-2516.700203,-9326.594869,536.266849
853.027613,-2960.823768,-8808.450710,1915.238745
853.027925,-2960.823768,-9622.677246,2374.896044
853.028238,-1776.494261,-10066.800811,153.219100
853.028551,-1258.350101,-9178.553681,1072.533697
853.028863,-2516.700203,-8882.471304,1915.238745
853.029176,-2812.782580,-8364.327145,1991.848295
853.029489,-2960.823768,-8364.327145,766.095498
853.029801,-3182.885551,-8586.388927,0.000000
853.030114,-2960.823768,-9326.594869,0.000000
853.030427,-2886.803174,-8882.471304,0.000000
853.030739,-3108.864956,-9252.574275,536.266849
853.031052,-2664.741391,-9474.636058,1302.362347
853.031365,-2368.659014,-9770.718434,1149.143247
853.031677,-2072.576638,-9696.697840,842.705048
853.031990,-2368.659014,-10214.842000,1532.190996
853.032303,-2220.617826,-9474.636058,995.924147
853.032615,-1924.535449,-9622.677246,1762.019645
853.032928,-2516.700203,-8956.491898,2298.286494
853.033241,-3923.091493,-8734.430116,2221.676944
853.033553,-4219.173869,-8142.265362,995.924147
853.033866,-5329.482782,-8364.327145,229.828649
853.034179,-5255.462188,-8068.244768,-995.924147
853.034491,-4959.379811,-7698.141797,-1455.581446
853.034804,-5477.523971,-7624.121203,-536.266849
853.035117,-5625.565159,-8216.285956,459.657299
853.035429,-4737.318029,-8586.388927,459.657299
853.035742,-3701.029710,-9178.553681,612.876398
853.036055,-3627.009116,-9030.512492,689.485948
853.036367,-3627.009116,-9844.739029,1302.362347
853.036680,-2516.700203,-9844.739029,1532.190996
853.036993,-2590.720797,-9326.594869,2068.457845
853.037305,-3330.926739,-9252.574275,2145.067394
853.037618,-3849.070898,-8364.327145,1302.362347
853.037931,-2664.741391,-9178.553681,383.047749
853.038243,-3627.009116,-8216.285956,-612.876398
853.038556,-3330.926739,-7994.224174,-689.485948
853.038869,-4293.194464,-8290.306550,0.000000
853.039181,-4737.318029,-8882.471304,995.924147
853.039494,-3923.091493,-8512.368333,995.924147
853.039807,-2886.803174,-8512.368333,1072.533697
853.040119,-2664.741391,-9178.553681,1455.581446
853.040432,-2590.720797,-9326.594869,2145.067394
853.040745,-2072.576638,-8142.265362,2068.457845
853.041057,-2886.803174,-8808.450710,2221.676944
853.041370,-3849.070898,-8660.409521,2221.676944
853.041683,-4219.173869,-9326.594869,1608.800546
853.041995,-3034.844362,-8290.306550,0.000000
853.042308,-3627.009116,-8290.306550,-306.438199
853.042621,-4293.194464,-8068.244768,-383.047749
853.042933,-4441.235652,-7994.224174,229.828649
853.043246,-3849.070898,-8068.244768,383.047749
853.043559,-3478.967927,-8956.491898,612.876398
853.043871,-2072.576638,-9104.533087,0.000000
853.044184,-2220.617826,-9548.656652,766.095498
853.044497,-2294.638420,-9474.636058,2451.505594
853.044809,-1554.432478,-10066.800811,2911.162892
853.045122,-518.144159,-9918.759623,1532.190996
853.045435,-1332.370696,-9400.615463,2451.505594
853.045747,-2368.659014,-9030.512492,1838.629195
853.046060,-2442.679609,-9992.780217,919.314598
853.046373,-1332.370696,-9104.533087,-306.438199
853.046685,-2738.761985,-8512.368333,76.609550
853.046998,-4219.173869,-7920.203579,612.876398
853.047311,-2516.700203,-8882.471304,612.876398
853.047624,-2072.576638,-9178.553681,536.266849
853.047936,-2146.597232,-9326.594869,1149.143247
853.048249,-1776.494261,-9622.677246,1225.752797
853.048562,-1702.473667,-9844.739029,1072.533697
853.048874,-1850.514855,-9104.533087,1762.019645
853.049187,-1998.556043,-9622.677246,2374.896044
853.049500,-2220.617826,-9918.759623,1685.410096
853.049812,-2368.659014,-9252.574275,1302.362347
853.050125,-3552.988522,-9104.533087,1378.971896
853.050438,-3701.029710,-8882.471304,383.047749
853.050750,-4515.256246,-9178.553681,0.000000
853.051063,-5773.606348,-8512.368333,0.000000
853.051376,-5107.421000,-8142.265362,306.438199
853.051688,-4959.379811,-7920.203579,0.000000
853.052001,-5033.400406,-8438.347739,0.000000
853.052314,-4293.194464,-8216.285956,-689.485948
853.052626,-3552.988522,-8438.347739,-76.609550
853.052939,-3182.885551,-8734.430116,536.266849
853.053252,-3330.926739,-9326.594869,1991.848295
853.053564,-2368.659014,-9326.594869,1455.581446
853.053877,-2368.659014,-9030.512492,1455.581446
853.054190,-3034.844362,-8512.368333,1532.190996
853.054502,-3627.009116,-9918.759623,1685.410096
853.054815,-3404.947333,-8364.327145,459.657299
853.055128,-4663.297435,-7846.182985,766.095498
853.055440,-4737.318029,-8364.327145,383.047749
853.055753,-4515.256246,-8290.306550,-153.219100
853.056066,-4589.276840,-8068.244768,229.828649
853.056378,-4737.318029,-8290.306550,459.657299
853.056691,-3404.947333,-8438.347739,306.438199
853.057004,-3108.864956,-9104.533087,919.314598
853.057316,-3404.947333,-8882.471304,919.314598
853.057629,-2516.700203,-9030.512492,1302.362347
853.057942,-1406.391290,-9844.739029,1225.752797
853.058254,-2072.576638,-9326.594869,1608.800546
853.058567,-2516.700203,-9326.594869,2221.676944
853.058880,-2960.823768,-9326.594869,1685.410096
853.059192,-3108.864956,-9030.512492,536.266849
853.059505,-3478.967927,-8068.244768,766.095498
853.059818,-3849.070898,-8364.327145,536.266849
853.060130,-3256.906145,-8660.409521,229.828649
853.060443,-3478.967927,-8956.491898,306.438199
853.060756,-3330.926739,-8882.471304,536.266849
853.061068,-2738.761985,-9326.594869,383.047749
853.061381,-2220.617826,-9622.677246,612.876398
853.061694,-1554.432478,-9622.677246,1225.752797
853.062006,-888.247130,-9770.718434,1685.410096
853.062319,-1628.453072,-9622.677246,2068.457845
853.062632,-1850.514855,-9104.533087,1762.019645
853.062944,-2368.659014,-9548.656652,2374.896044
853.063257,-2368.659014,-8734.430116,1225.752797
853.063570,-3108.864956,-8956.491898,1149.143247
853.063882,-3627.009116,-8586.388927,689.485948
853.064195,-3775.050304,-8586.388927,766.095498
853.064508,-3552.988522,-8216.285956,229.828649
853.064820,-4293.194464,-8512.368333,842.705048
853.065133,-3478.967927,-8438.347739,1149.143247
853.065446,-2590.720797,-9622.677246,536.266849
853.065758,-2294.638420,-9252.574275,229.828649
853.066071,-2294.638420,-9918.759623,995.924147
853.066384,-1924.535449,-9696.697840,995.924147
853.066696,-1998.556043,-9474.636058,1915.238745
853.067009,-2294.638420,-8956.491898,1915.238745
853.067322,-2960.823768,-9696.697840,1455.581446
853.067634,-2960.823768,-8956.491898,919.314598
853.067947,-4589.276840,-8882.471304,919.314598
853.068260,-4811.338623,-8216.285956,612.876398
853.068572,-4737.318029,-8364.327145,383.047749
853.068885,-4959.379811,-7994.224174,153.219100
853.069198,-5033.400406,-8068.244768,1072.533697
853.069510,-4515.256246,-7994.224174,612.876398
853.069823,-3775.050304,-8734.430116,612.876398
853.070136,-3701.029710,-8438.347739,842.705048
853.070448,-3478.967927,-8882.471304,1225.752797
853.070761,-3775.050304,-9104.533087,1149.143247
853.071074,-3478.967927,-8660.409521,1532.190996
853.071386,-3478.967927,-8882.471304,1149.143247
853.071699,-3775.050304,-8068.244768,766.095498
853.072012,-4663.297435,-8068.244768,612.876398
853.072324,-4811.338623,-7994.224174,689.485948
853.072637,-4737.318029,-8512.368333,536.266849
853.072950,-3849.070898,-8364.327145,459.657299
853.073262,-4071.132681,-8808.450710,919.314598
853.073575,-3997.112087,-8586.388927,1149.143247
853.073888,-2738.761985,-9622.677246,1302.362347
853.074200,-2738.761985,-9474.636058,1225.752797
853.074513,-1924.535449,-9844.739029,1149.143247
853.074826,-1554.432478,-9400.615463,1838.629195
853.075138,-1850.514855,-9548.656652,1225.752797
853.075451,-1480.411884,-9104.533087,1302.362347
853.075764,-2146.597232,-9992.780217,1532.190996
853.076076,-1998.556043,-9326.594869,766.095498
853.076389,-2516.700203,-9030.512492,612.876398
853.076702,-2960.823768,-8512.368333,995.924147
853.077015,-3182.885551,-8586.388927,1149.143247
853.077327,-2886.803174,-8586.388927,306.438199
853.077640,-3478.967927,-8956.491898,1072.533697
853.077953,-3034.844362,-8734.430116,766.095498
853.078265,-2664.741391,-9252.574275,536.266849
853.078578,-2442.679609,-9326.594869,536.266849
853.078891,-1776.494261,-9992.780217,1302.362347
853.079203,-1628.453072,-9548.656652,1149.143247
853.079516,-1924.535449,-9696.697840,1608.800546
853.079829,-2368.659014,-9400.615463,1455.581446
853.080141,-3182.885551,-9548.656652,1378.971896
853.080454,-3404.947333,-8882.471304,766.095498
853.080767,-4219.173869,-8882.471304,689.485948
853.081079,-4737.318029,-8438.347739,766.095498
853.081392,-4663.297435,-8142.265362,383.047749
853.081705,-5847.626942,-7402.059420,612.876398
853.082017,-6143.709319,-8068.244768,1762.019645
853.082330,-5477.523971,-8216.285956,229.828649
853.082643,-5551.544565,-8290.306550,306.438199
853.082955,-5477.523971,-8068.244768,766.095498
853.083268,-4737.318029,-8512.368333,842.705048
853.083581,-4589.276840,-8734.430116,919.314598
853.083893,-4959.379811,-8068.244768,1302.362347
853.084206,-5107.421000,-8808.450710,1762.019645
853.084519,-4589.276840,-8216.285956,153.219100
853.084831,-4885.359217,-8068.244768,0.000000
853.085144,-5255.462188,-8290.306550,306.438199
853.085457,-5181.441594,-8808.450710,995.924147
853.085769,-5255.462188,-8068.244768,919.314598
853.086082,-5107.421000,-8216.285956,1378.971896
853.086395,-4959.379811,-7550.100608,689.485948
853.086707,-4219.173869,-8734.430116,689.485948
853.087020,-3478.967927,-8438.347739,766.095498
853.087333,-3478.967927,-8956.491898,1608.800546
853.087645,-3478.967927,-8438.347739,1838.629195
853.087958,-4071.132681,-8364.327145,2221.676944
853.088271,-3923.091493,-8068.244768,1915.238745
853.088583,-4219.173869,-8808.450710,1302.362347
853.088896,-3923.091493,-8068.244768,0.000000
853.089209,-4367.215058,-8438.347739,689.485948
853.089521,-5033.400406,-7994.224174,919.314598
853.089834,-4959.379811,-8216.285956,766.095498
853.090147,-4071.132681,-8142.265362,76.609550
853.090459,-4145.153275,-8882.471304,536.266849
853.090772,-3404.947333,-8660.409521,689.485948
853.091085,-2442.679609,-9474.636058,1378.971896
853.091397,-1776.494261,-9252.574275,1991.848295
853.091710,-2072.576638,-9622.677246,2604.724693
853.092023,-1850.514855,-9400.615463,2145.067394
853.092335,-2146.597232,-9400.615463,2374.896044
853.092648,-2516.700203,-9178.553681,1608.800546
853.092961,-3182.885551,-9030.512492,536.266849
853.093273,-3256.906145,-8216.285956,0.000000
853.093586,-3997.112087,-8438.347739,0.000000
853.093899,-4959.379811,-8290.306550,0.000000
853.094211,-4589.276840,-8142.265362,-153.219100
853.094524,-4737.318029,-9104.533087,459.657299
853.094837,-4441.235652,-9252.574275,536.266849
853.095149,-3775.050304,-9400.615463,383.047749
853.095462,-3404.947333,-9474.636058,612.876398
853.095775,-2294.638420,-9474.636058,1225.752797
853.096088,-1776.494261,-9178.553681,1378.971896
853.096400,-2220.617826,-8586.388927,1915.238745
853.096713,-2368.659014,-8808.450710,2221.676944
853.097026,-3108.864956,-9474.636058,1378.971896
853.097338,-3404.947333,-8438.347739,919.314598
853.097651,-4293.194464,-8586.388927,689.485948
853.097964,-4811.338623,-8290.306550,536.266849
853.098277,-5033.400406,-8364.327145,76.609550
853.098589,-5107.421000,-7698.141797,-383.047749
853.098902,-6143.709319,-7994.224174,229.828649
853.099215,-6217.729913,-7772.162391,459.657299
853.099527,-5107.421000,-8660.409521,383.047749
853.099840,-4737.318029,-8808.450710,536.266849
853.100153,-4737.318029,-9474.636058,1915.238745
853.100465,-4293.194464,-8660.409521,1532.190996
853.100778,-3701.029710,-8882.471304,1915.238745
853.101091,-3330.926739,-8216.285956,2068.457845
853.101404,-4293.194464,-9030.512492,1532.190996
853.101716,-4515.256246,-7698.141797,76.609550
853.102029,-4589.276840,-8216.285956,76.609550
853.102342,-4663.297435,-7624.121203,383.047749
853.102654,-4885.359217,-7994.224174,766.095498
853.102967,-4737.318029,-7698.141797,689.485948
853.103280,-5329.482782,-8216.285956,1149.143247
853.103593,-4515.256246,-8142.265362,766.095498
853.103905,-3923.091493,-9326.594869,0.000000
853.104218,-3775.050304,-8882.471304,995.924147
853.104531,-3849.070898,-9400.615463,1838.629195
853.104843,-3552.988522,-9252.574275,2068.457845
853.105156,-3182.885551,-9104.533087,1915.238745
853.105469,-3997.112087,-9030.512492,1225.752797
853.105782,-3775.050304,-8734.430116,612.876398
853.106094,-3701.029710,-8734.430116,0.000000
853.106407,-4219.173869,-8512.368333,76.609550
853.106720,-4145.153275,-7550.100608,1532.190996
853.107032,-3997.112087,-7624.121203,536.266849
853.107345,-3923.091493,-8290.306550,536.266849
853.107658,-3849.070898,-8142.265362,383.047749
853.107970,-3256.906145,-8808.450710,153.219100
853.108283,-2294.638420,-8808.450710,306.438199
853.108596,-2368.659014,-9030.512492,1762.019645
853.108909,-2442.679609,-9474.636058,2298.286494
853.109221,-2368.659014,-9696.697840,2145.067394
853.109534,-2886.803174,-9030.512492,2068.457845
853.109847,-3849.070898,-9844.739029,1302.362347
853.110159,-3256.906145,-9474.636058,153.219100
853.110472,-3701.029710,-9104.533087,229.828649
853.110785,-5033.400406,-8512.368333,766.095498
853.111098,-5107.421000,-8290.306550,1532.190996
853.111410,-3849.070898,-8586.388927,-536.266849
853.111723,-4293.194464,-8586.388927,0.000000
853.112036,-4811.338623,-7698.141797,536.266849
853.112348,-4145.153275,-9104.533087,689.485948
853.112661,-2960.823768,-8956.491898,0.000000
853.112974,-2664.741391,-8660.409521,1149.143247
853.113286,-3849.070898,-8512.368333,2374.896044
853.113599,-4293.194464,-9030.512492,2068.457845
853.113912,-2960.823768,-8956.491898,1149.143247
853.114225,-2738.761985,-8956.491898,0.000000
853.114537,-3552.988522,-8438.347739,306.438199
853.114850,-5995.668130,-8438.347739,766.095498
853.115163,-6365.771101,-8660.409521,1225.752797
853.115475,-4737.318029,-8364.327145,229.828649
853.115788,-4367.215058,-8512.368333,76.609550
853.116101,-5033.400406,-9178.553681,0.000000
853.116414,-4737.318029,-8586.388927,229.828649
853.116726,-4145.153275,-8438.347739,919.314598
853.117039,-4219.173869,-8586.388927,1762.019645
853.117352,-3997.112087,-8956.491898,1991.848295
853.117664,-3997.112087,-8438.347739,1455.581446
853.117977,-3478.967927,-7846.182985,1685.410096
853.118290,-3330.926739,-8808.450710,1225.752797
853.118603,-2590.720797,-8216.285956,536.266849
853.118915,-3034.844362,-7624.121203,1455.581446
853.119228,-4959.379811,-7550.100608,1838.629195
853.119541,-5107.421000,-8660.409521,459.657299
853.119853,-3849.070898,-8734.430116,-995.924147
853.120166,-4589.276840,-9178.553681,-153.219100
853.120479,-4811.338623,-8734.430116,842.705048
853.120791,-4219.173869,-9622.677246,1608.800546
853.121104,-3923.091493,-9104.533087,1455.581446
853.121417,-3701.029710,-9326.594869,2528.115143
853.121730,-3182.885551,-9030.512492,1532.190996
853.122042,-3404.947333,-9104.533087,1225.752797
853.122355,-3330.926739,-8586.388927,842.705048
853.122668,-3478.967927,-8512.368333,1072.533697
853.122980,-3552.988522,-7920.203579,1302.362347
853.123293,-4663.297435,-8068.244768,383.047749
853.123606,-4515.256246,-7772.162391,306.438199
853.123919,-3034.844362,-8660.409521,0.000000
853.124231,-3108.864956,-8512.368333,-536.266849
853.124544,-3478.967927,-9252.574275,459.657299
853.124857,-3182.885551,-8956.491898,1225.752797
853.125169,-2960.823768,-9400.615463,1991.848295
853.125482,-2442.679609,-9548.656652,1838.629195
853.125795,-1850.514855,-10288.862594,2374.896044
853.126108,-2368.659014,-9474.636058,1532.190996
853.126420,-2294.638420,-9252.574275,1685.410096
853.126733,-2886.803174,-9326.594869,1532.190996
853.127046,-3108.864956,-8734.430116,842.705048
853.127358,-3849.070898,-8216.285956,383.047749
853.127671,-4885.359217,-7698.141797,536.266849
853.127984,-4885.359217,-8660.409521,0.000000
853.128296,-4737.318029,-8290.306550,0.000000
853.128609,-5033.400406,-8142.265362,536.266849
853.128922,-4811.338623,-8290.306550,1072.533697
853.129235,-4293.194464,-8438.347739,1455.581446
853.129547,-3701.029710,-8512.368333,1225.752797
853.129860,-3182.885551,-8956.491898,919.314598
853.130173,-2590.720797,-8956.491898,536.266849
853.130485,-3775.050304,-8882.471304,995.924147
853.130798,-3627.009116,-9400.615463,1838.629195
853.131111,-3701.029710,-9474.636058,689.485948
853.131424,-2960.823768,-8808.450710,229.828649
853.131736,-3849.070898,-8586.388927,766.095498
853.132049,-4441.235652,-8438.347739,612.876398
853.132362,-4663.297435,-8512.368333,536.266849
853.132674,-4441.235652,-8142.265362,536.266849
853.132987,-4515.256246,-8660.409521,919.314598
853.133300,-3849.070898,-8290.306550,766.095498
853.133612,-4071.132681,-8512.368333,1149.143247
853.133925,-4441.235652,-8586.388927,1838.629195
853.134238,-3997.112087,-9178.553681,1685.410096
853.134551,-2960.823768,-8882.471304,459.657299
853.134863,-3330.926739,-8512.368333,229.828649
853.135176,-3849.070898,-8068.244768,842.705048
853.135489,-4293.194464,-8956.491898,1302.362347
853.135801,-3330.926739,-8438.347739,383.047749
853.136114,-3923.091493,-7772.162391,995.924147
853.136427,-5773.606348,-7772.162391,1455.581446
853.136740,-6217.729913,-8586.388927,919.314598
853.137052,-4663.297435,-8808.450710,-229.828649
853.137365,-4293.194464,-8808.450710,306.438199
853.137678,-5699.585753,-7550.100608,2068.457845
853.137990,-5921.647536,-8586.388927,1915.238745
853.138303,-5255.462188,-8142.265362,306.438199
853.138616,-4811.338623,-8438.347739,766.095498
853.138929,-5033.400406,-8512.368333,612.876398
853.139241,-4663.297435,-8512.368333,536.266849
853.139554,-4441.235652,-7920.203579,995.924147
853.139867,-4737.318029,-7698.141797,919.314598
853.140179,-4663.297435,-8290.306550,766.095498
853.140492,-4367.215058,-7772.162391,229.828649
853.140805,-4441.235652,-7920.203579,536.266849
853.141117,-3775.050304,-7994.224174,153.219100
853.141430,-3775.050304,-8956.491898,612.876398
853.141743,-4145.153275,-9030.512492,842.705048
853.142056,-3182.885551,-9104.533087,1149.143247
853.142368,-2664.741391,-8734.430116,1378.971896
853.142681,-3404.947333,-10066.800811,1685.410096
853.142994,-3034.844362,-9474.636058,1915.238745
853.143306,-2812.782580,-9104.533087,1225.752797
853.143619,-2960.823768,-8586.388927,1302.362347
853.143932,-4293.194464,-8882.471304,1608.800546
853.144245,-4219.173869,-8660.409521,689.485948
853.144557,-4367.215058,-8216.285956,153.219100
853.144870,-4589.276840,-8068.244768,766.095498
853.145183,-4441.235652,-8660.409521,0.000000
853.145495,-4367.215058,-7624.121203,-306.438199
853.145808,-4515.256246,-8660.409521,919.314598
853.146121,-3552.988522,-8808.450710,229.828649
853.146434,-2960.823768,-9400.615463,766.095498
853.146746,-2960.823768,-9104.533087,919.314598
853.147059,-2590.720797,-9770.718434,1915.238745
853.147372,-1406.391290,-9326.594869,766.095498
853.147684,-2146.597232,-9326.594869,1455.581446
853.147997,-2960.823768,-8882.471304,2451.505594
853.148310,-3701.029710,-9030.512492,1532.190996
853.148622,-3478.967927,-8512.368333,612.876398
853.148935,-4589.276840,-8512.368333,-229.828649
853.149248,-4663.297435,-8364.327145,76.609550
853.149561,-4737.318029,-8364.327145,0.000000
853.149873,-4811.338623,-7920.203579,536.266849
853.150186,-4885.359217,-7846.182985,766.095498
853.150499,-4515.256246,-8068.244768,383.047749
853.150811,-3849.070898,-8808.450710,76.609550
853.151124,-3701.029710,-9030.512492,459.657299
853.151437,-2812.782580,-8882.471304,842.705048
853.151750,-2590.720797,-8956.491898,1455.581446
853.152062,-3404.947333,-9030.512492,3140.991542
853.152375,-4071.132681,-9178.553681,2068.457845
853.152688,-3849.070898,-8142.265362,689.485948
853.153000,-4441.235652,-8734.430116,383.047749
853.153313,-4737.318029,-8808.450710,-153.219100
853.153626,-4663.297435,-8586.388927,0.000000
853.153938,-4737.318029,-7920.203579,76.609550
853.154251,-5033.400406,-8290.306550,1149.143247
853.154564,-4589.276840,-8512.368333,1149.143247
853.154877,-4293.194464,-9252.574275,1838.629195
853.155189,-4441.235652,-8956.491898,1072.533697
853.155502,-4293.194464,-9326.594869,1378.971896
853.155815,-3923.091493,-8734.430116,1225.752797
853.156127,-4219.173869,-8438.347739,1302.362347
853.156440,-4663.297435,-7920.203579,1455.581446
853.156753,-4293.194464,-8068.244768,1302.362347
853.157066,-4071.132681,-8364.327145,306.438199
853.157378,-5107.421000,-7772.162391,612.876398
853.157691,-5033.400406,-7994.224174,612.876398
853.158004,-4811.338623,-8290.306550,995.924147
853.158316,-4737.318029,-7994.224174,1072.533697
853.158629,-4737.318029,-8438.347739,1455.581446
853.158942,-3997.112087,-8734.430116,1225.752797
853.159255,-3849.070898,-9104.533087,689.485948
853.159567,-3997.112087,-8808.450710,919.314598
853.159880,-3701.029710,-9474.636058,1838.629195
853.160193,-3108.864956,-9474.636058,1762.019645
853.160505,-3108.864956,-9030.512492,1455.581446
853.160818,-3404.947333,-9030.512492,995.924147
853.161131,-3923.091493,-8808.450710,766.095498
853.161443,-3923.091493,-8660.409521,0.000000
853.161756,-3775.050304,-8216.285956,612.876398
853.162069,-3849.070898,-8364.327145,766.095498
853.162382,-3627.009116,-8216.285956,306.438199
853.162694,-3923.091493,-8956.491898,919.314598
853.163007,-3923.091493,-8882.471304,995.924147
853.163320,-3034.844362,-9326.594869,536.266849
853.163632,-2886.803174,-9474.636058,536.266849
853.163945,-3256.906145,-9030.512492,1149.143247
853.164258,-2960.823768,-9326.594869,1608.800546
853.164571,-3478.967927,-9326.594869,2068.457845
853.164883,-2886.803174,-8808.450710,1455.581446
853.165196,-3404.947333,-9030.512492,1302.362347
853.165509,-3330.926739,-7920.203579,459.657299
853.165821,-3997.112087,-8216.285956,229.828649
853.166134,-4515.256246,-8216.285956,383.047749
853.166447,-3997.112087,-8364.327145,383.047749
853.166760,-3849.070898,-7402.059420,153.219100
853.167072,-4367.215058,-8734.430116,536.266849
853.167385,-4219.173869,-8586.388927,536.266849
853.167698,-3552.988522,-9548.656652,689.485948
853.168010,-3182.885551,-9474.636058,842.705048
853.168323,-3330.926739,-9696.697840,1685.410096
853.168636,-3330.926739,-9400.615463,1225.752797
853.168948,-3478.967927,-9252.574275,1608.800546
853.169261,-3330.926739,-9326.594869,1072.533697
853.169574,-3701.029710,-9326.594869,1762.019645
853.169887,-4219.173869,-8216.285956,536.266849
853.170199,-5403.503377,-7772.162391,536.266849
853.170512,-5255.462188,-7698.141797,-459.657299
853.170825,-4737.318029,-7920.203579,-919.314598
853.171137,-4737.318029,-7772.162391,-612.876398
853.171450,-4737.318029,-8438.347739,0.000000
853.171763,-4071.132681,-8438.347739,689.485948
853.172076,-3256.906145,-9474.636058,459.657299
853.172388,-2738.761985,-9622.677246,919.314598
853.172701,-2368.659014,-10214.842000,1685.410096
853.173014,-2072.576638,-10214.842000,1838.629195
853.173326,-2220.617826,-9770.718434,2451.505594
853.173639,-2812.782580,-9696.697840,2374.896044
853.173952,-2368.659014,-9400.615463,1302.362347
853.174264,-2590.720797,-8734.430116,536.266849
853.174577,-2738.761985,-8734.430116,0.000000
853.174890,-2960.823768,-8882.471304,0.000000
853.175203,-3034.844362,-8216.285956,-612.876398
853.175515,-3478.967927,-8734.430116,153.219100
853.175828,-3182.885551,-8512.368333,536.266849
853.176141,-2442.679609,-8734.430116,383.047749
853.176453,-1554.432478,-8882.471304,459.657299
853.176766,-1628.453072,-9474.636058,1302.362347
853.177079,-1406.391290,-9622.677246,1685.410096
853.177392,-1554.432478,-9918.759623,2298.286494
853.177704,-1554.432478,-9474.636058,2145.067394
853.178017,-2442.679609,-9844.739029,1838.629195
853.178330,-2368.659014,-9400.615463,842.705048
853.178642,-3330.926739,-9400.615463,689.485948
853.178955,-3627.009116,-9030.512492,842.705048
853.179268,-3701.029710,-8586.388927,0.000000
853.179581,-3478.967927,-8438.347739,0.000000
853.179893,-4071.132681,-8808.450710,153.219100
853.180206,-3478.967927,-8808.450710,0.000000
853.180519,-2442.679609,-9252.574275,153.219100
853.180831,-2294.638420,-9030.512492,536.266849
853.181144,-2368.659014,-9252.574275,2221.676944
853.181457,-2220.617826,-9326.594869,2374.896044
853.181769,-2368.659014,-9474.636058,2221.676944
853.182082,-2368.659014,-9474.636058,1991.848295
853.182395,-3108.864956,-9104.533087,1225.752797
853.182708,-3849.070898,-8734.430116,842.705048
853.183020,-4885.359217,-8216.285956,842.705048
853.183333,-4589.276840,-8586.388927,306.438199
853.183646,-4145.153275,-8142.265362,0.000000
853.183958,-4811.338623,-7994.224174,383.047749
853.184271,-4441.235652,-8290.306550,612.876398
853.184584,-3627.009116,-8290.306550,306.438199
853.184897,-2886.803174,-8586.388927,306.438199
853.185209,-3182.885551,-8956.491898,1532.190996
853.185522,-2886.803174,-9104.533087,1762.019645
853.185835,-2886.803174,-8956.491898,1762.019645
853.186147,-3256.906145,-8586.388927,2221.676944
853.186460,-4145.153275,-9030.512492,2221.676944
853.186773,-4145.153275,-8438.347739,995.924147
853.187085,-4885.359217,-8364.327145,842.705048
853.187398,-5033.400406,-8364.327145,766.095498
853.187711,-4737.318029,-8438.347739,229.828649
853.188024,-4885.359217,-8142.265362,153.219100
853.188336,-5329.482782,-8290.306550,766.095498
853.188649,-4145.153275,-8364.327145,459.657299
853.188962,-2960.823768,-9326.594869,-153.219100
853.189274,-2960.823768,-8808.450710,229.828649
853.189587,-2442.679609,-10066.800811,1455.581446
853.189900,-2072.576638,-9104.533087,1225.752797
853.190213,-1332.370696,-9622.677246,1455.581446
853.190525,-1702.473667,-9326.594869,1378.971896
853.190838,-2220.617826,-9844.739029,1149.143247
853.191151,-2294.638420,-9252.574275,612.876398
853.191463,-3034.844362,-9030.512492,229.828649
853.191776,-3182.885551,-9178.553681,842.705048
853.192089,-3701.029710,-9104.533087,766.095498
853.192402,-3775.050304,-9178.553681,919.314598
853.192714,-3997.112087,-8882.471304,459.657299
853.193027,-3034.844362,-8734.430116,0.000000
853.193340,-2738.761985,-8586.388927,-612.876398
853.193652,-2590.720797,-8512.368333,536.266849
853.193965,-2072.576638,-9326.594869,995.924147
853.194278,-1924.535449,-9326.594869,1225.752797
853.194590,-1332.370696,-8956.491898,1455.581446
853.194903,-1850.514855,-9622.677246,1762.019645
853.195216,-2146.597232,-9252.574275,919.314598
853.195528,-2368.659014,-9178.553681,842.705048
853.195841,-2960.823768,-9252.574275,995.924147
853.196154,-2516.700203,-9252.574275,1149.143247
853.196466,-2664.741391,-8956.491898,1532.190996
853.196779,-3034.844362,-9548.656652,1072.533697
853.197092,-3182.885551,-9104.533087,766.095498
853.197404,-2738.761985,-9474.636058,229.828649
853.197717,-2812.782580,-9252.574275,229.828649
853.198030,-2960.823768,-9622.677246,1072.533697
853.198342,-3108.864956,-8882.471304,1532.190996
853.198655,-2516.700203,-9178.553681,1685.410096
853.198968,-3108.864956,-8364.327145,1455.581446
853.199280,-3849.070898,-8512.368333,1838.629195
853.199593,-4071.132681,-8068.244768,612.876398
853.199906,-4293.194464,-8586.388927,306.438199
853.200218,-4219.173869,-8290.306550,0.000000
853.200531,-4959.379811,-7476.080014,76.609550
853.200844,-5181.441594,-7772.162391,842.705048
853.201156,-4441.235652,-8882.471304,995.924147
853.201469,-3108.864956,-8808.450710,536.266849
853.201782,-3923.091493,-8882.471304,1225.752797
853.202094,-4367.215058,-9326.594869,1532.190996
853.202407,-3034.844362,-9992.780217,1072.533697
853.202720,-1702.473667,-9400.615463,842.705048
853.203032,-2368.659014,-8882.471304,1149.143247
853.203345,-3849.070898,-8808.450710,1762.019645
853.203658,-3923.091493,-8808.450710,1685.410096
853.203970,-3256.906145,-8660.409521,459.657299
853.204283,-3404.947333,-8068.244768,0.000000
853.204596,-4145.153275,-8364.327145,0.000000
853.204908,-5255.462188,-7994.224174,306.438199
853.205221,-4737.318029,-8068.244768,1072.533697
853.205534,-4367.215058,-8216.285956,1302.362347
853.205846,-2960.823768,-8956.491898,612.876398
853.206159,-2442.679609,-8882.471304,229.828649
853.206472,-2220.617826,-9474.636058,1072.533697
853.206784,-1702.473667,-9474.636058,1762.019645
853.207097,-1332.370696,-9770.718434,1991.848295
853.207410,-1480.411884,-9252.574275,2221.676944
853.207722,-3404.947333,-9474.636058,2528.115143
853.208035,-3997.112087,-9178.553681,612.876398
853.208348,-2886.803174,-9326.594869,-612.876398
853.208660,-2664.741391,-9326.594869,0.000000
853.208973,-3849.070898,-8660.409521,1302.362347
853.209286,-4293.194464,-8216.285956,1072.533697
853.209598,-4219.173869,-8512.368333,766.095498
853.209911,-3552.988522,-8290.306550,153.219100
853.210224,-2516.700203,-9030.512492,-459.657299
853.210536,-2294.638420,-8512.368333,0.000000
853.210849,-2368.659014,-9474.636058,919.314598
853.211162,-1406.391290,-9400.615463,1991.848295
853.211474,-1480.411884,-9474.636058,1915.238745
853.211787,-1924.535449,-9548.656652,1991.848295
853.212100,-2590.720797,-9992.780217,1302.362347
853.212412,-2442.679609,-9178.553681,383.047749
853.212725,-3404.947333,-9178.553681,229.828649
853.213038,-4293.194464,-8586.388927,229.828649
853.213350,-4737.318029,-8068.244768,1225.752797
853.213663,-4663.297435,-8364.327145,1225.752797
853.213976,-5107.421000,-8734.430116,536.266849
853.214288,-4367.215058,-8956.491898,-536.266849
853.214601,-3997.112087,-9030.512492,-689.485948
853.214914,-4367.215058,-8586.388927,306.438199
853.215226,-3997.112087,-9030.512492,1532.190996
853.215539,-2960.823768,-8956.491898,1378.971896
853.215852,-3108.864956,-8734.430116,2145.067394
853.216164,-3552.988522,-9104.533087,1762.019645
853.216477,-3478.967927,-8882.471304,536.266849
853.216790,-2664.741391,-8956.491898,153.219100
853.217102,-3108.864956,-8216.285956,383.047749
853.217415,-3923.091493,-7994.224174,1225.752797
853.217728,-4293.194464,-8512.368333,1225.752797
853.218040,-4737.318029,-9400.615463,1072.533697
853.218353,-4367.215058,-8882.471304,76.609550
853.218666,-3997.112087,-9178.553681,-153.219100
853.218978,-4071.132681,-9178.553681,689.485948
853.219291,-3552.988522,-9622.677246,1532.190996
853.219604,-1998.556043,-9030.512492,1532.190996
853.219916,-2590.720797,-8290.306550,1378.971896
853.220229,-3849.070898,-8216.285956,1838.629195
853.220542,-3997.112087,-9326.594869,1455.581446
853.220854,-2590.720797,-8512.368333,229.828649
853.221167,-3552.988522,-8364.327145,153.219100
853.221480,-4219.173869,-8142.265362,689.485948
853.221792,-4589.276840,-8216.285956,689.485948
853.222105,-4293.194464,-7624.121203,689.485948
853.222418,-3552.988522,-8660.409521,306.438199
853.222730,-2442.679609,-9178.553681,229.828649
853.223043,-2146.597232,-9548.656652,-229.828649
853.223356,-2960.823768,-9178.553681,1608.800546
853.223668,-2368.659014,-10288.862594,2757.943793
853.223981,-518.144159,-10362.883188,2145.067394
853.224294,-370.102971,-9622.677246,1685.410096
853.224606,-1776.494261,-9474.636058,1915.238745
853.224919,-2590.720797,-9252.574275,1072.533697
853.225232,-1036.288319,-10140.821405,-536.266849
853.225544,-1332.370696,-8438.347739,76.609550
853.225857,-2886.803174,-8290.306550,1149.143247
853.226170,-3552.988522,-9030.512492,1072.533697
853.226482,-2368.659014,-9696.697840,0.000000
853.226795,-1776.494261,-9104.533087,0.000000
853.227108,-1406.391290,-9474.636058,612.876398
853.227420,-1776.494261,-9918.759623,1072.533697
853.227733,-1628.453072,-9474.636058,1608.800546
853.228046,-1036.288319,-9326.594869,2374.896044
853.228358,-1924.535449,-9918.759623,2221.676944
853.228671,-2146.597232,-10066.800811,1455.581446
853.228984,-3034.844362,-9696.697840,1455.581446
853.229296,-3478.967927,-8882.471304,536.266849
853.229609,-3775.050304,-8956.491898,76.609550
853.229922,-4219.173869,-8882.471304,76.609550
853.230234,-4737.318029,-8216.285956,229.828649
853.230547,-4441.235652,-7846.182985,0.000000
853.230860,-5033.400406,-8808.450710,306.438199
853.231172,-4589.276840,-8586.388927,-229.828649
853.231485,-3182.885551,-8882.471304,0.000000
853.231798,-3330.926739,-8808.450710,536.266849
853.232110,-3627.009116,-9474.636058,1838.629195
853.232423,-3034.844362,-8956.491898,2145.067394
853.232736,-2368.659014,-9252.574275,1072.533697
853.233048,-2738.761985,-8808.450710,1532.190996
853.233361,-4293.194464,-9400.615463,1302.362347
853.233674,-3997.112087,-8956.491898,536.266849
853.233986,-4441.235652,-8438.347739,536.266849
853.234299,-4737.318029,-8586.388927,612.876398
853.234612,-4959.379811,-7698.141797,229.828649
853.234924,-4367.215058,-7920.203579,0.000000
853.235237,-5033.400406,-7772.162391,612.876398
853.235550,-4293.194464,-8364.327145,76.609550
853.235862,-3627.009116,-8438.347739,306.438199
853.236175,-4367.215058,-8734.430116,1455.581446
853.236488,-3627.009116,-8956.491898,2068.457845
853.236800,-1924.535449,-9326.594869,995.924147
853.237113,-1776.494261,-9252.574275,1608.800546
853.237426,-3108.864956,-8882.471304,2374.896044
853.237738,-2664.741391,-8660.409521,1072.533697
853.238051,-2516.700203,-9104.533087,612.876398
853.238364,-3182.885551,-8586.388927,689.485948
853.238676,-3108.864956,-9104.533087,995.924147
