#time,accel_x,accel_y,accel_z
6970.270979,-4959.379811,-8438.347739,1455.581446
6970.271303,-3552.988522,-8364.327145,0.000000
6970.271628,-4145.153275,-8364.327145,-229.828649
6970.271953,-4737.318029,-8882.471304,383.047749
6970.272277,-3701.029710,-9252.574275,-153.219100
6970.272602,-3182.885551,-8438.347739,-689.485948
6970.272927,-3108.864956,-9992.780217,229.828649
6970.273252,-3034.844362,-9400.615463,1608.800546
6970.273576,-2294.638420,-8660.409521,1532.190996
6970.273901,-3108.864956,-8808.450710,1838.629195
6970.274226,-4663.297435,-8956.491898,1991.848295
6970.274551,-3849.070898,-8734.430116,153.219100
6970.274875,-3330.926739,-8808.450710,-995.924147
6970.275200,-4515.256246,-8882.471304,-306.438199
6970.275525,-4219.173869,-8068.244768,-536.266849
6970.275850,-3849.070898,-8290.306550,76.609550
6970.276174,-4589.276840,-9178.553681,536.266849
6970.276499,-3701.029710,-9252.574275,0.000000
6970.276824,-2738.761985,-8660.409521,-383.047749
6970.277149,-3552.988522,-9400.615463,842.705048
6970.277473,-4071.132681,-9696.697840,1915.238745
6970.277798,-2738.761985,-8364.327145,1608.800546
6970.278123,-2738.761985,-8216.285956,919.314598
6970.278448,-4515.256246,-9400.615463,1838.629195
6970.278772,-4219.173869,-8364.327145,459.657299
6970.279097,-3701.029710,-8364.327145,-842.705048
6970.279422,-3923.091493,-9326.594869,0.000000
6970.279747,-3182.885551,-8216.285956,0.000000
6970.280071,-3182.885551,-7772.162391,0.000000
6970.280396,-4293.194464,-9326.594869,995.924147
6970.280721,-4145.153275,-9030.512492,1225.752797
6970.281046,-2442.679609,-9030.512492,-229.828649
6970.281371,-2738.761985,-9326.594869,-229.828649
6970.281695,-4145.153275,-9326.594869,1685.410096
6970.282020,-3552.988522,-9252.574275,1762.019645
6970.282345,-3701.029710,-8512.368333,1149.143247
6970.282670,-3923.091493,-9770.718434,1302.362347
6970.282994,-4367.215058,-8216.285956,229.828649
6970.283319,-4219.173869,-8068.244768,0.000000
6970.283644,-4885.359217,-9030.512492,0.000000
6970.283969,-3923.091493,-8364.327145,76.609550
6970.284293,-2960.823768,-7698.141797,-229.828649
6970.284618,-3997.112087,-8660.409521,612.876398
6970.284943,-3997.112087,-9178.553681,689.485948
6970.285268,-3849.070898,-8956.491898,0.000000
6970.285592,-2664.741391,-9104.533087,-153.219100
6970.285917,-3034.844362,-10436.903782,1149.143247
6970.286242,-3108.864956,-8512.368333,1762.019645
6970.286567,-3330.926739,-8586.388927,2145.067394
6970.286891,-3627.009116,-9770.718434,1378.971896
6970.287216,-2886.803174,-8438.347739,-153.219100
6970.287541,-3627.009116,-7846.182985,-766.095498
6970.287866,-4811.338623,-9030.512492,383.047749
6970.288190,-4589.276840,-8882.471304,459.657299
6970.288515,-3330.926739,-8586.388927,-919.314598
6970.288840,-4589.276840,-8364.327145,459.657299
6970.289165,-4737.318029,-8734.430116,1302.362347
6970.289489,-3923.091493,-8660.409521,1225.752797
6970.289814,-2886.803174,-9326.594869,0.000000
6970.290139,-3552.988522,-9992.780217,459.657299
6970.290464,-3108.864956,-8882.471304,1225.752797
6970.290788,-3182.885551,-8364.327145,1378.971896
6970.291113,-3849.070898,-9400.615463,1762.019645
6970.291438,-3701.029710,-8808.450710,612.876398
6970.291763,-3701.029710,-8290.306550,-536.266849
6970.292088,-4293.194464,-8290.306550,0.000000
6970.292412,-4219.173869,-8438.347739,766.095498
6970.292737,-3330.926739,-8512.368333,-306.438199
6970.293062,-3701.029710,-9030.512492,0.000000
6970.293387,-4515.256246,-9400.615463,842.705048
6970.293711,-3627.009116,-8142.265362,459.657299
6970.294036,-3256.906145,-8956.491898,383.047749
6970.294361,-3552.988522,-10510.924376,919.314598
6970.294686,-3330.926739,-9252.574275,995.924147
6970.295010,-2738.761985,-8142.265362,689.485948
6970.295335,-3923.091493,-9178.553681,1378.971896
6970.295660,-4589.276840,-8438.347739,1455.581446
6970.295985,-3849.070898,-8438.347739,229.828649
6970.296309,-4367.215058,-8882.471304,-766.095498
6970.296634,-4293.194464,-8512.368333,383.047749
6970.296959,-3330.926739,-8438.347739,-766.095498
6970.297284,-4367.215058,-8956.491898,536.266849
6970.297608,-4367.215058,-9622.677246,1455.581446
6970.297933,-3330.926739,-8660.409521,612.876398
6970.298258,-2516.700203,-8660.409521,459.657299
6970.298583,-3034.844362,-9326.594869,842.705048
6970.298907,-2442.679609,-9474.636058,1149.143247
6970.299232,-2886.803174,-8438.347739,1302.362347
6970.299557,-3404.947333,-8216.285956,1378.971896
6970.299882,-4071.132681,-8512.368333,1072.533697
6970.300206,-3775.050304,-8438.347739,153.219100
6970.300531,-4737.318029,-9178.553681,306.438199
6970.300856,-4367.215058,-9252.574275,306.438199
6970.301181,-3997.112087,-7328.038826,0.000000
6970.301505,-4663.297435,-8290.306550,1072.533697
6970.301830,-4441.235652,-9844.739029,919.314598
6970.302155,-3552.988522,-9844.739029,153.219100
6970.302480,-3256.906145,-9030.512492,-229.828649
6970.302805,-3108.864956,-9104.533087,919.314598
6970.303129,-2738.761985,-8956.491898,995.924147
6970.303454,-2812.782580,-8142.265362,0.000000
6970.303779,-3775.050304,-9622.677246,1149.143247
6970.304104,-3701.029710,-8660.409521,1532.190996
6970.304428,-3108.864956,-6957.935855,766.095498
6970.304753,-3627.009116,-7772.162391,842.705048
6970.305078,-4737.318029,-8956.491898,1302.362347
6970.305403,-3701.029710,-9326.594869,-306.438199
6970.305727,-3256.906145,-9030.512492,-689.485948
6970.306052,-4959.379811,-8956.491898,1685.410096
6970.306377,-4811.338623,-9770.718434,1455.581446
6970.306702,-3478.967927,-9622.677246,612.876398
6970.307026,-2886.803174,-10362.883188,306.438199
6970.307351,-3478.967927,-9548.656652,1072.533697
6970.307676,-2886.803174,-7254.018232,1302.362347
6970.308001,-3701.029710,-8290.306550,2451.505594
6970.308325,-4219.173869,-8956.491898,2145.067394
6970.308650,-3627.009116,-7550.100608,612.876398
6970.308975,-4145.153275,-7179.997637,0.000000
6970.309300,-4959.379811,-7994.224174,1149.143247
6970.309624,-3701.029710,-8290.306550,383.047749
6970.309949,-3552.988522,-8290.306550,0.000000
6970.310274,-4515.256246,-9326.594869,1302.362347
6970.310599,-3701.029710,-9326.594869,1149.143247
6970.310923,-2960.823768,-8364.327145,1685.410096
6970.311248,-2812.782580,-9992.780217,1838.629195
6970.311573,-3256.906145,-10510.924376,1455.581446
6970.311898,-3552.988522,-9252.574275,1838.629195
6970.312222,-3182.885551,-8956.491898,2145.067394
6970.312547,-3627.009116,-8660.409521,1532.190996
6970.312872,-3701.029710,-8438.347739,1455.581446
6970.313197,-4145.153275,-8364.327145,766.095498
6970.313522,-3108.864956,-8660.409521,842.705048
6970.313846,-3256.906145,-8364.327145,766.095498
6970.314171,-3849.070898,-8882.471304,1225.752797
6970.314496,-3849.070898,-8734.430116,2528.115143
6970.314821,-3034.844362,-9400.615463,2145.067394
6970.315145,-2368.659014,-9474.636058,1915.238745
6970.315470,-3256.906145,-9030.512492,2528.115143
6970.315795,-3997.112087,-9326.594869,2374.896044
6970.316120,-3627.009116,-8808.450710,1838.629195
6970.316444,-3330.926739,-9400.615463,1838.629195
6970.316769,-3997.112087,-8586.388927,1838.629195
6970.317094,-4737.318029,-7994.224174,2221.676944
6970.317419,-3701.029710,-7328.038826,1915.238745
6970.317743,-4293.194464,-7994.224174,1532.190996
6970.318068,-3997.112087,-8364.327145,153.219100
6970.318393,-3701.029710,-7920.203579,612.876398
6970.318718,-4589.276840,-8734.430116,2298.286494
6970.319042,-4589.276840,-9104.533087,1991.848295
6970.319367,-3108.864956,-8586.388927,1378.971896
6970.319692,-2738.761985,-9252.574275,536.266849
6970.320017,-3330.926739,-9548.656652,1608.800546
6970.320341,-3701.029710,-8364.327145,1378.971896
6970.320666,-3701.029710,-8660.409521,1072.533697
6970.320991,-3849.070898,-9252.574275,995.924147
6970.321316,-3182.885551,-7402.059420,306.438199
6970.321640,-3627.009116,-7328.038826,0.000000
6970.321965,-4441.235652,-7920.203579,1225.752797
6970.322290,-3034.844362,-8142.265362,383.047749
6970.322615,-2664.741391,-8882.471304,-919.314598
6970.322939,-3923.091493,-8660.409521,306.438199
6970.323264,-4293.194464,-8660.409521,1378.971896
6970.323589,-3627.009116,-9548.656652,383.047749
6970.323914,-2960.823768,-9548.656652,0.000000
6970.324238,-3330.926739,-9474.636058,536.266849
6970.324563,-3701.029710,-9326.594869,1378.971896
6970.324888,-3478.967927,-8734.430116,459.657299
6970.325213,-3997.112087,-9400.615463,689.485948
6970.325538,-3849.070898,-8660.409521,-229.828649
6970.325862,-3997.112087,-8068.244768,-766.095498
6970.326187,-4293.194464,-8882.471304,-766.095498
6970.326512,-4071.132681,-8882.471304,-229.828649
6970.326837,-3256.906145,-8956.491898,-1532.190996
6970.327161,-3256.906145,-9474.636058,229.828649
6970.327486,-3849.070898,-9844.739029,919.314598
6970.327811,-3330.926739,-9844.739029,612.876398
6970.328136,-3256.906145,-9918.759623,0.000000
6970.328460,-3182.885551,-9918.759623,459.657299
6970.328785,-3330.926739,-9252.574275,1302.362347
6970.329110,-3849.070898,-8512.368333,995.924147
6970.329435,-5033.400406,-9030.512492,1685.410096
6970.329759,-4885.359217,-8438.347739,0.000000
6970.330084,-4145.153275,-8142.265362,-1455.581446
6970.330409,-4737.318029,-8216.285956,-1072.533697
6970.330734,-4959.379811,-8364.327145,-612.876398
6970.331058,-4219.173869,-8586.388927,-1455.581446
6970.331383,-4515.256246,-9030.512492,-536.266849
6970.331708,-4219.173869,-9474.636058,76.609550
6970.332033,-3108.864956,-8956.491898,459.657299
6970.332357,-2886.803174,-9400.615463,459.657299
6970.332682,-3256.906145,-10436.903782,1225.752797
6970.333007,-2516.700203,-9474.636058,766.095498
6970.333332,-2442.679609,-8290.306550,689.485948
6970.333656,-3701.029710,-9030.512492,1072.533697
6970.333981,-4145.153275,-7846.182985,766.095498
6970.334306,-3108.864956,-7698.141797,-306.438199
6970.334631,-4071.132681,-8068.244768,-766.095498
6970.334955,-4515.256246,-7846.182985,-383.047749
6970.335280,-3552.988522,-7772.162391,-459.657299
6970.335605,-3849.070898,-8364.327145,-229.828649
6970.335930,-4663.297435,-8660.409521,383.047749
6970.336255,-3330.926739,-8438.347739,0.000000
6970.336579,-2220.617826,-8586.388927,-1378.971896
6970.336904,-2886.803174,-9252.574275,-459.657299
6970.337229,-3182.885551,-9696.697840,842.705048
6970.337554,-2368.659014,-8512.368333,612.876398
6970.337878,-2516.700203,-9474.636058,1455.581446
6970.338203,-3404.947333,-8512.368333,1608.800546
6970.338528,-3034.844362,-7772.162391,1225.752797
6970.338853,-3182.885551,-8882.471304,306.438199
6970.339177,-3775.050304,-8512.368333,0.000000
6970.339502,-3256.906145,-8216.285956,-842.705048
6970.339827,-4071.132681,-8660.409521,0.000000
6970.340152,-4811.338623,-9178.553681,1378.971896
6970.340476,-3923.091493,-9326.594869,306.438199
6970.340801,-3182.885551,-8364.327145,-612.876398
6970.341126,-3849.070898,-8512.368333,0.000000
6970.341451,-4293.194464,-8882.471304,229.828649
6970.341775,-3627.009116,-7550.100608,612.876398
6970.342100,-4145.153275,-8586.388927,306.438199
6970.342425,-4737.318029,-8956.491898,612.876398
6970.342750,-4145.153275,-7328.038826,-842.705048
6970.343074,-4589.276840,-8068.244768,-612.876398
6970.343399,-4293.194464,-10214.842000,-689.485948
6970.343724,-3034.844362,-9474.636058,-919.314598
6970.344049,-3849.070898,-9474.636058,-536.266849
6970.344373,-4145.153275,-9992.780217,1149.143247
6970.344698,-4071.132681,-9992.780217,1838.629195
6970.345023,-3404.947333,-9844.739029,306.438199
6970.345348,-3182.885551,-10658.965565,612.876398
6970.345672,-4293.194464,-8956.491898,0.000000
6970.345997,-3997.112087,-7920.203579,229.828649
6970.346322,-4367.215058,-8956.491898,459.657299
6970.346647,-4663.297435,-8142.265362,0.000000
6970.346972,-3923.091493,-7698.141797,-1378.971896
6970.347296,-4145.153275,-8290.306550,-995.924147
6970.347621,-4293.194464,-8068.244768,0.000000
6970.347946,-3256.906145,-8364.327145,-306.438199
6970.348271,-2812.782580,-9622.677246,0.000000
6970.348595,-3034.844362,-9326.594869,459.657299
6970.348920,-3108.864956,-9918.759623,689.485948
6970.349245,-2960.823768,-9770.718434,995.924147
6970.349570,-2664.741391,-10510.924376,766.095498
6970.349894,-2738.761985,-10214.842000,995.924147
6970.350219,-2738.761985,-9400.615463,612.876398
6970.350544,-2886.803174,-8586.388927,1532.190996
6970.350869,-4071.132681,-8512.368333,1762.019645
6970.351193,-3627.009116,-7698.141797,229.828649
6970.351518,-3997.112087,-7179.997637,-919.314598
6970.351843,-4589.276840,-7328.038826,-612.876398
6970.352168,-3627.009116,-7920.203579,-842.705048
6970.352492,-3627.009116,-7254.018232,-689.485948
6970.352817,-4737.318029,-8438.347739,995.924147
6970.353142,-4145.153275,-9474.636058,1608.800546
6970.353467,-2368.659014,-8512.368333,612.876398
6970.353791,-3108.864956,-8956.491898,612.876398
6970.354116,-4515.256246,-9474.636058,1532.190996
6970.354441,-3552.988522,-9474.636058,919.314598
6970.354766,-2516.700203,-8882.471304,0.000000
6970.355090,-4145.153275,-8586.388927,1378.971896
6970.355415,-4811.338623,-7179.997637,689.485948
6970.355740,-3849.070898,-7920.203579,-612.876398
6970.356065,-4367.215058,-8586.388927,-1072.533697
6970.356389,-3182.885551,-8586.388927,-1225.752797
6970.356714,-3552.988522,-8364.327145,-459.657299
6970.357039,-4737.318029,-8364.327145,1991.848295
6970.357364,-4515.256246,-9030.512492,2145.067394
6970.357689,-2812.782580,-9474.636058,-536.266849
6970.358013,-3330.926739,-9548.656652,-229.828649
6970.358338,-3997.112087,-9844.739029,-306.438199
6970.358663,-3627.009116,-9030.512492,459.657299
6970.358988,-3701.029710,-8068.244768,459.657299
6970.359312,-3627.009116,-9770.718434,229.828649
6970.359637,-3627.009116,-8438.347739,-306.438199
6970.359962,-3330.926739,-8068.244768,229.828649
6970.360287,-4071.132681,-8882.471304,-153.219100
6970.360611,-3404.947333,-9178.553681,-383.047749
6970.360936,-3404.947333,-9252.574275,-842.705048
6970.361261,-3775.050304,-9696.697840,0.000000
6970.361586,-3256.906145,-9696.697840,1149.143247
6970.361910,-3775.050304,-9104.533087,76.609550
6970.362235,-2960.823768,-9474.636058,-612.876398
6970.362560,-2812.782580,-10066.800811,229.828649
6970.362885,-2960.823768,-9252.574275,689.485948
6970.363209,-3330.926739,-8956.491898,1225.752797
6970.363534,-4219.173869,-9326.594869,2145.067394
6970.363859,-3478.967927,-8068.244768,0.000000
6970.364184,-3182.885551,-7328.038826,-612.876398
6970.364508,-4737.318029,-8216.285956,-766.095498
6970.364833,-5107.421000,-8660.409521,-383.047749
6970.365158,-4145.153275,-8364.327145,-1149.143247
6970.365483,-4219.173869,-8734.430116,-842.705048
6970.365807,-4811.338623,-9474.636058,383.047749
6970.366132,-4293.194464,-9548.656652,0.000000
6970.366457,-3182.885551,-9474.636058,0.000000
6970.366782,-3256.906145,-9770.718434,689.485948
6970.367106,-2886.803174,-9252.574275,1378.971896
6970.367431,-2738.761985,-7476.080014,1225.752797
6970.367756,-3923.091493,-8956.491898,1455.581446
6970.368081,-3923.091493,-8808.450710,153.219100
6970.368406,-3182.885551,-7846.182985,-1608.800546
6970.368730,-4071.132681,-8586.388927,-306.438199
6970.369055,-5033.400406,-8660.409521,919.314598
6970.369380,-4441.235652,-8438.347739,1455.581446
6970.369705,-4737.318029,-8586.388927,689.485948
6970.370029,-4293.194464,-9622.677246,153.219100
6970.370354,-3552.988522,-9252.574275,-459.657299
6970.370679,-3478.967927,-8660.409521,0.000000
6970.371004,-3552.988522,-9474.636058,1608.800546
6970.371328,-2442.679609,-8586.388927,1608.800546
6970.371653,-2368.659014,-7698.141797,1149.143247
6970.371978,-2590.720797,-8512.368333,766.095498
6970.372303,-4219.173869,-7698.141797,1072.533697
6970.372627,-3478.967927,-7624.121203,0.000000
6970.372952,-3256.906145,-8068.244768,-459.657299
6970.373277,-3108.864956,-8734.430116,-536.266849
6970.373602,-2812.782580,-8734.430116,0.000000
6970.373926,-3552.988522,-8660.409521,1149.143247
6970.374251,-4145.153275,-9252.574275,1762.019645
6970.374576,-2960.823768,-9252.574275,842.705048
6970.374897,-2960.823768,-9548.656652,-153.219100
6970.375221,-3627.009116,-10584.944971,306.438199
6970.375546,-3404.947333,-10436.903782,1072.533697
6970.375871,-2664.741391,-8216.285956,1149.143247
6970.376196,-3404.947333,-7624.121203,1685.410096
6970.376521,-4145.153275,-7920.203579,1149.143247
6970.376845,-3404.947333,-7550.100608,306.438199
6970.377170,-4219.173869,-8142.265362,-842.705048
6970.377495,-4885.359217,-8660.409521,-919.314598
6970.377820,-3923.091493,-7698.141797,-842.705048
6970.378145,-3923.091493,-8586.388927,306.438199
6970.378470,-5181.441594,-9474.636058,1608.800546
6970.378794,-4737.318029,-9400.615463,919.314598
6970.379119,-2960.823768,-9474.636058,-919.314598
6970.379444,-3552.988522,-9844.739029,-612.876398
6970.379769,-3256.906145,-10066.800811,0.000000
6970.380094,-3182.885551,-9252.574275,383.047749
6970.380418,-3775.050304,-9474.636058,1072.533697
6970.380743,-3849.070898,-8438.347739,1072.533697
6970.381068,-2886.803174,-7476.080014,0.000000
6970.381393,-3849.070898,-8290.306550,-383.047749
6970.381718,-4663.297435,-9474.636058,0.000000
6970.382042,-3849.070898,-8956.491898,-766.095498
6970.382367,-3627.009116,-7994.224174,-1225.752797
6970.382692,-4737.318029,-8734.430116,0.000000
6970.383017,-4737.318029,-9844.739029,689.485948
6970.383342,-3552.988522,-9104.533087,0.000000
6970.383667,-2368.659014,-9844.739029,-1685.410096
6970.383991,-3552.988522,-9844.739029,0.000000
6970.384316,-3256.906145,-7920.203579,536.266849
6970.384641,-3627.009116,-8142.265362,459.657299
6970.384966,-4737.318029,-9030.512492,383.047749
6970.385291,-3701.029710,-7994.224174,-1915.238745
6970.385615,-3182.885551,-7476.080014,-2221.676944
6970.385940,-4515.256246,-8364.327145,-842.705048
6970.386265,-3330.926739,-8290.306550,-1072.533697
6970.386590,-3256.906145,-9252.574275,-919.314598
6970.386915,-3775.050304,-9844.739029,153.219100
6970.387239,-3627.009116,-9326.594869,383.047749
6970.387564,-3108.864956,-8956.491898,0.000000
6970.387889,-2516.700203,-9770.718434,76.609550
6970.388214,-3404.947333,-10436.903782,-689.485948
6970.388539,-3182.885551,-8142.265362,0.000000
6970.388863,-3404.947333,-8586.388927,612.876398
6970.389188,-4663.297435,-8512.368333,766.095498
6970.389513,-3849.070898,-7402.059420,-995.924147
6970.389838,-3701.029710,-7476.080014,-2145.067394
6970.390163,-4071.132681,-8512.368333,-1685.410096
6970.390488,-3849.070898,-7550.100608,-1915.238745
6970.390812,-3478.967927,-8808.450710,-1302.362347
6970.391137,-4293.194464,-9474.636058,-383.047749
6970.391462,-3701.029710,-10214.842000,-306.438199
6970.391787,-2960.823768,-9252.574275,-1072.533697
6970.392112,-2886.803174,-10436.903782,-153.219100
6970.392436,-3627.009116,-11029.068536,306.438199
6970.392761,-2812.782580,-10140.821405,229.828649
6970.393086,-2664.741391,-9918.759623,919.314598
6970.393411,-4145.153275,-9474.636058,1608.800546
6970.393736,-3552.988522,-7994.224174,383.047749
6970.394060,-4219.173869,-7698.141797,-842.705048
6970.394385,-4959.379811,-8586.388927,-1072.533697
6970.394710,-4515.256246,-8216.285956,-1455.581446
6970.395035,-3923.091493,-7476.080014,-1532.190996
6970.395360,-5033.400406,-8068.244768,306.438199
6970.395684,-5033.400406,-9030.512492,995.924147
6970.396009,-3775.050304,-9252.574275,-306.438199
6970.396334,-2886.803174,-9770.718434,0.000000
6970.396659,-3330.926739,-10214.842000,1225.752797
6970.396984,-3108.864956,-9474.636058,1378.971896
6970.397309,-2960.823768,-9104.533087,1072.533697
6970.397633,-4071.132681,-9548.656652,1608.800546
6970.397958,-3108.864956,-8956.491898,459.657299
6970.398283,-2442.679609,-8290.306550,-919.314598
6970.398608,-3701.029710,-8882.471304,153.219100
6970.398933,-4219.173869,-8660.409521,153.219100
6970.399257,-2886.803174,-8364.327145,229.828649
6970.399582,-3701.029710,-8216.285956,1225.752797
6970.399907,-4737.318029,-8660.409521,1991.848295
6970.400232,-4145.153275,-8290.306550,1378.971896
6970.400557,-3478.967927,-9252.574275,153.219100
6970.400881,-4589.276840,-9844.739029,995.924147
6970.401206,-4441.235652,-8512.368333,1225.752797
6970.401531,-4071.132681,-8290.306550,1072.533697
6970.401856,-4071.132681,-9030.512492,1532.190996
6970.402181,-3775.050304,-7772.162391,995.924147
6970.402506,-2442.679609,-6883.915261,-153.219100
6970.402830,-3182.885551,-8068.244768,229.828649
6970.403155,-3034.844362,-8068.244768,689.485948
6970.403480,-2146.597232,-8216.285956,766.095498
6970.403805,-2812.782580,-9178.553681,1455.581446
6970.404130,-3478.967927,-9770.718434,2834.553343
6970.404454,-3330.926739,-8808.450710,1838.629195
6970.404779,-3478.967927,-9400.615463,1072.533697
6970.405104,-4441.235652,-9770.718434,1455.581446
6970.405429,-3923.091493,-9252.574275,842.705048
6970.405754,-3923.091493,-8216.285956,536.266849
6970.406078,-5551.544565,-7994.224174,1149.143247
6970.406403,-5403.503377,-8216.285956,536.266849
6970.406728,-4219.173869,-6883.915261,-689.485948
6970.407053,-4293.194464,-7772.162391,-1302.362347
6970.407378,-3923.091493,-7698.141797,-842.705048
6970.407702,-2590.720797,-8142.265362,-306.438199
6970.408027,-2960.823768,-9252.574275,1149.143247
6970.408352,-3108.864956,-9918.759623,1991.848295
6970.408677,-1702.473667,-9548.656652,1225.752797
6970.409002,-1480.411884,-9548.656652,689.485948
6970.409327,-3404.947333,-10288.862594,1302.362347
6970.409651,-2516.700203,-10732.986159,689.485948
6970.409976,-2368.659014,-9030.512492,0.000000
6970.410301,-4663.297435,-9252.574275,383.047749
6970.410626,-5477.523971,-8290.306550,689.485948
6970.410951,-4737.318029,-7624.121203,-689.485948
6970.411275,-4959.379811,-8586.388927,-1838.629195
6970.411600,-5033.400406,-8364.327145,-1991.848295
6970.411925,-4219.173869,-7772.162391,-2145.067394
6970.412250,-4811.338623,-7920.203579,-459.657299
6970.412575,-5403.503377,-9696.697840,1225.752797
6970.412899,-3478.967927,-9548.656652,-153.219100
6970.413224,-2590.720797,-9400.615463,-919.314598
6970.413549,-3182.885551,-10732.986159,306.438199
6970.413874,-2960.823768,-9770.718434,459.657299
6970.414199,-2368.659014,-8364.327145,995.924147
6970.414523,-3627.009116,-9474.636058,689.485948
6970.414848,-4145.153275,-8956.491898,0.000000
6970.415173,-3627.009116,-7698.141797,-995.924147
6970.415498,-3923.091493,-8364.327145,-1915.238745
6970.415823,-4441.235652,-9252.574275,-2145.067394
6970.416148,-3627.009116,-8364.327145,-1838.629195
6970.416472,-4367.215058,-8660.409521,-689.485948
6970.416797,-5403.503377,-9474.636058,1072.533697
6970.417122,-4293.194464,-10436.903782,995.924147
6970.417447,-3108.864956,-9548.656652,-383.047749
6970.417772,-2516.700203,-9622.677246,0.000000
6970.418096,-3701.029710,-9696.697840,1685.410096
6970.418421,-4293.194464,-7476.080014,2145.067394
6970.418746,-4663.297435,-8882.471304,1991.848295
6970.419071,-4145.153275,-8512.368333,306.438199
6970.419396,-3775.050304,-6809.894666,-919.314598
6970.419720,-4219.173869,-7994.224174,-383.047749
6970.420045,-4441.235652,-8364.327145,229.828649
6970.420370,-3256.906145,-7920.203579,-536.266849
6970.420695,-2812.782580,-9104.533087,-612.876398
6970.421020,-3923.091493,-9326.594869,1149.143247
6970.421345,-3404.947333,-9400.615463,1608.800546
6970.421669,-3034.844362,-9474.636058,1302.362347
6970.421994,-2886.803174,-10658.965565,1302.362347
6970.422319,-3034.844362,-10066.800811,1532.190996
6970.422644,-2886.803174,-9104.533087,1915.238745
6970.422969,-3849.070898,-8586.388927,2911.162892
6970.423293,-4219.173869,-8808.450710,2834.553343
6970.423618,-3552.988522,-8216.285956,842.705048
6970.423943,-3701.029710,-6957.935855,0.000000
6970.424268,-4589.276840,-7624.121203,1378.971896
6970.424593,-4071.132681,-7328.038826,1378.971896
6970.424917,-4071.132681,-7920.203579,1149.143247
6970.425242,-4367.215058,-8734.430116,2298.286494
6970.425567,-3404.947333,-9030.512492,1915.238745
6970.425892,-2664.741391,-8438.347739,1225.752797
6970.426217,-3034.844362,-9918.759623,2068.457845
6970.426541,-3182.885551,-9918.759623,2528.115143
6970.426866,-2146.597232,-9104.533087,2374.896044
6970.427191,-2590.720797,-9252.574275,2604.724693
6970.427516,-3775.050304,-9104.533087,3600.648841
6970.427841,-3404.947333,-7994.224174,1838.629195
6970.428166,-3108.864956,-8216.285956,306.438199
6970.428490,-3701.029710,-7846.182985,1378.971896
6970.428815,-3849.070898,-8142.265362,1378.971896
6970.429140,-3849.070898,-7624.121203,1685.410096
6970.429465,-4515.256246,-8586.388927,2145.067394
6970.429790,-4441.235652,-9178.553681,2451.505594
6970.430114,-3404.947333,-7772.162391,1608.800546
6970.430439,-3627.009116,-8882.471304,1838.629195
6970.430764,-4367.215058,-9252.574275,2681.334243
6970.431089,-3701.029710,-9104.533087,2068.457845
6970.431414,-3478.967927,-9104.533087,1762.019645
6970.431738,-5033.400406,-9252.574275,2374.896044
6970.432063,-3997.112087,-8364.327145,1225.752797
6970.432388,-3256.906145,-7476.080014,0.000000
6970.432713,-3701.029710,-8364.327145,689.485948
6970.433038,-2516.700203,-9770.718434,-153.219100
6970.433363,-1850.514855,-8586.388927,0.000000
6970.433687,-3330.926739,-9178.553681,1685.410096
6970.434012,-3552.988522,-9622.677246,2987.772442
6970.434337,-2886.803174,-9030.512492,1762.019645
6970.434662,-3182.885551,-9474.636058,1762.019645
6970.434987,-3923.091493,-10140.821405,1838.629195
6970.435311,-3923.091493,-8956.491898,1072.533697
6970.435636,-4219.173869,-8216.285956,1225.752797
6970.435961,-5329.482782,-8882.471304,1378.971896
6970.436286,-4959.379811,-7328.038826,689.485948
6970.436611,-4737.318029,-7105.977043,-995.924147
6970.436935,-5033.400406,-8290.306550,-612.876398
6970.437260,-4219.173869,-8882.471304,-1302.362347
6970.437585,-2368.659014,-8660.409521,-2451.505594
6970.437910,-3627.009116,-9326.594869,612.876398
6970.438235,-3775.050304,-9400.615463,2374.896044
6970.438559,-1850.514855,-9770.718434,1302.362347
6970.438884,-1850.514855,-10140.821405,229.828649
6970.439209,-2294.638420,-10732.986159,995.924147
6970.439534,-2442.679609,-9770.718434,1302.362347
6970.439859,-3108.864956,-8142.265362,842.705048
6970.440184,-4367.215058,-9474.636058,1378.971896
6970.440508,-4737.318029,-8956.491898,76.609550
6970.440833,-4589.276840,-7846.182985,-1072.533697
6970.441158,-5773.606348,-7476.080014,-1608.800546
6970.441483,-4959.379811,-8512.368333,-1302.362347
6970.441808,-4293.194464,-7254.018232,-2451.505594
6970.442132,-4589.276840,-8734.430116,-766.095498
6970.442457,-4811.338623,-8808.450710,842.705048
6970.442782,-3330.926739,-9030.512492,995.924147
6970.443107,-3182.885551,-9770.718434,612.876398
6970.443432,-3034.844362,-10584.944971,536.266849
6970.443756,-3330.926739,-9992.780217,1149.143247
6970.444081,-2738.761985,-7772.162391,459.657299
6970.444406,-3997.112087,-8734.430116,1302.362347
6970.444731,-3997.112087,-9030.512492,229.828649
6970.445056,-3404.947333,-8142.265362,-1532.190996
6970.445380,-3701.029710,-9252.574275,-1608.800546
6970.445705,-3997.112087,-8586.388927,-995.924147
6970.446030,-3404.947333,-7476.080014,-383.047749
6970.446355,-3775.050304,-9844.739029,0.000000
6970.446680,-4219.173869,-9400.615463,1455.581446
6970.447005,-3404.947333,-9326.594869,536.266849
6970.447329,-3627.009116,-8808.450710,229.828649
6970.447654,-3849.070898,-9252.574275,459.657299
6970.447979,-4071.132681,-9178.553681,1072.533697
6970.448304,-4219.173869,-8438.347739,1149.143247
6970.448629,-4145.153275,-8660.409521,1685.410096
6970.448953,-5181.441594,-7476.080014,1685.410096
6970.449278,-3849.070898,-7698.141797,306.438199
6970.449603,-3923.091493,-8438.347739,0.000000
6970.449928,-3552.988522,-8660.409521,0.000000
6970.450253,-3330.926739,-8586.388927,-229.828649
6970.450577,-3627.009116,-9178.553681,689.485948
6970.450902,-3997.112087,-9474.636058,2298.286494
6970.451227,-3034.844362,-9548.656652,2145.067394
6970.451552,-2664.741391,-9474.636058,1302.362347
6970.451877,-2516.700203,-9770.718434,1072.533697
6970.452202,-3627.009116,-10140.821405,2145.067394
6970.452526,-3627.009116,-8512.368333,2145.067394
6970.452851,-3627.009116,-8586.388927,2374.896044
6970.453176,-4293.194464,-7698.141797,2298.286494
6970.453501,-3552.988522,-7254.018232,459.657299
6970.453826,-4145.153275,-7476.080014,383.047749
6970.454150,-4589.276840,-8142.265362,842.705048
6970.454475,-3627.009116,-7920.203579,459.657299
6970.454800,-3256.906145,-8586.388927,766.095498
6970.455125,-4367.215058,-9696.697840,2374.896044
6970.455450,-4219.173869,-10510.924376,2374.896044
6970.455774,-2294.638420,-9622.677246,1302.362347
6970.456099,-2886.803174,-10214.842000,2451.505594
6970.456424,-3849.070898,-9770.718434,3294.210641
6970.456749,-2960.823768,-8956.491898,2374.896044
6970.457074,-3552.988522,-9770.718434,2068.457845
6970.457398,-4219.173869,-8142.265362,1455.581446
6970.457723,-2960.823768,-7254.018232,229.828649
6970.458048,-3478.967927,-6661.853478,536.266849
6970.458373,-4515.256246,-7846.182985,2374.896044
6970.458698,-4663.297435,-7772.162391,1532.190996
6970.459023,-3849.070898,-7476.080014,536.266849
6970.459347,-4663.297435,-9030.512492,1685.410096
6970.459672,-4219.173869,-9104.533087,1532.190996
6970.459997,-3478.967927,-8734.430116,842.705048
6970.460322,-3775.050304,-9844.739029,1455.581446
6970.460647,-3627.009116,-9622.677246,1455.581446
6970.460971,-2516.700203,-8290.306550,1378.971896
6970.461296,-3108.864956,-8956.491898,2145.067394
6970.461621,-4145.153275,-8660.409521,1762.019645
6970.461946,-2886.803174,-7698.141797,-536.266849
6970.462271,-3034.844362,-7402.059420,-1762.019645
6970.462595,-3627.009116,-8512.368333,-383.047749
6970.462920,-3034.844362,-7772.162391,-306.438199
6970.463245,-2960.823768,-8364.327145,459.657299
6970.463570,-4441.235652,-9474.636058,1608.800546
6970.463895,-4071.132681,-10288.862594,919.314598
6970.464219,-3330.926739,-10140.821405,-383.047749
6970.464544,-4367.215058,-10066.800811,0.000000
6970.464869,-4663.297435,-10658.965565,459.657299
6970.465194,-3108.864956,-9178.553681,153.219100
6970.465519,-3330.926739,-8142.265362,306.438199
6970.465844,-4441.235652,-8734.430116,612.876398
6970.466168,-3775.050304,-7698.141797,-536.266849
6970.466493,-3256.906145,-7254.018232,-1532.190996
6970.466818,-3182.885551,-8882.471304,-766.095498
6970.467143,-2960.823768,-7846.182985,0.000000
6970.467468,-2812.782580,-7772.162391,383.047749
6970.467792,-4589.276840,-9474.636058,1378.971896
6970.468117,-4959.379811,-9622.677246,1302.362347
6970.468442,-3701.029710,-10214.842000,-383.047749
6970.468767,-4663.297435,-11399.171507,-459.657299
6970.469092,-5329.482782,-11473.192101,536.266849
6970.469416,-4071.132681,-9770.718434,612.876398
6970.469741,-3108.864956,-9474.636058,-229.828649
6970.470066,-3034.844362,-9548.656652,0.000000
6970.470391,-2664.741391,-8068.244768,-306.438199
6970.470716,-3182.885551,-6883.915261,-459.657299
6970.471041,-3182.885551,-7920.203579,459.657299
6970.471365,-2664.741391,-8142.265362,76.609550
6970.471690,-2886.803174,-6883.915261,0.000000
6970.472015,-4737.318029,-8364.327145,2068.457845
6970.472340,-5181.441594,-8956.491898,2451.505594
6970.472665,-3997.112087,-9696.697840,689.485948
6970.472989,-4367.215058,-10955.047942,306.438199
6970.473314,-5107.421000,-9918.759623,1532.190996
6970.473639,-4441.235652,-9400.615463,2145.067394
6970.473964,-4367.215058,-9992.780217,1532.190996
6970.474289,-4293.194464,-9992.780217,536.266849
6970.474613,-3034.844362,-8808.450710,-383.047749
6970.474938,-2664.741391,-6735.874072,-383.047749
6970.475263,-2738.761985,-7105.977043,1072.533697
6970.475588,-2516.700203,-7698.141797,1762.019645
6970.475913,-1998.556043,-6957.935855,612.876398
6970.476237,-2886.803174,-7994.224174,1762.019645
6970.476562,-3849.070898,-8142.265362,2834.553343
6970.476887,-4367.215058,-8438.347739,2528.115143
6970.477212,-3108.864956,-10214.842000,1608.800546
6970.477537,-3552.988522,-10140.821405,1302.362347
6970.477862,-4145.153275,-9030.512492,2221.676944
6970.478186,-4589.276840,-9030.512492,2604.724693
6970.478511,-4737.318029,-9992.780217,2221.676944
6970.478836,-3849.070898,-9030.512492,766.095498
6970.479161,-3034.844362,-7698.141797,-612.876398
6970.479486,-3256.906145,-7105.977043,536.266849
6970.479811,-3404.947333,-7550.100608,1455.581446
6970.480135,-2738.761985,-7772.162391,1302.362347
6970.480460,-2886.803174,-8660.409521,1838.629195
6970.480785,-3923.091493,-8734.430116,2681.334243
6970.481110,-3552.988522,-8734.430116,2298.286494
6970.481435,-2960.823768,-9104.533087,1608.800546
6970.481760,-3627.009116,-10214.842000,1991.848295
6970.482085,-3627.009116,-10362.883188,2145.067394
6970.482409,-3775.050304,-8882.471304,2604.724693
6970.482734,-4589.276840,-8956.491898,3294.210641
6970.483059,-4885.359217,-9178.553681,2528.115143
6970.483384,-3552.988522,-7698.141797,0.000000
6970.483709,-3404.947333,-8438.347739,-383.047749
6970.484034,-4663.297435,-7846.182985,919.314598
6970.484359,-2812.782580,-7698.141797,612.876398
6970.484683,-3478.967927,-8586.388927,1302.362347
6970.485008,-4219.173869,-9104.533087,1838.629195
6970.485333,-2886.803174,-9474.636058,1608.800546
6970.485658,-2960.823768,-9252.574275,995.924147
6970.485983,-3849.070898,-9770.718434,2681.334243
6970.486308,-3849.070898,-10510.924376,2451.505594
6970.486633,-3034.844362,-9548.656652,1762.019645
6970.486957,-4515.256246,-9770.718434,2068.457845
6970.487282,-5773.606348,-8660.409521,1685.410096
6970.487607,-4367.215058,-8216.285956,306.438199
6970.487932,-4367.215058,-8364.327145,-1072.533697
6970.488257,-4145.153275,-9104.533087,-612.876398
6970.488582,-3552.988522,-7328.038826,-766.095498
6970.488907,-3478.967927,-7476.080014,383.047749
6970.489231,-3849.070898,-8734.430116,1762.019645
6970.489556,-2886.803174,-8882.471304,1455.581446
6970.489881,-2738.761985,-8660.409521,76.609550
6970.490206,-3108.864956,-9992.780217,995.924147
6970.490531,-2886.803174,-9770.718434,1225.752797
6970.490856,-2442.679609,-8808.450710,1378.971896
6970.491181,-3627.009116,-10140.821405,1685.410096
6970.491505,-4663.297435,-8660.409521,1991.848295
6970.491830,-3849.070898,-8586.388927,612.876398
6970.492155,-4145.153275,-8512.368333,-383.047749
6970.492480,-4589.276840,-9252.574275,-229.828649
6970.492805,-3997.112087,-7920.203579,-766.095498
6970.493130,-3330.926739,-7772.162391,-383.047749
6970.493455,-4293.194464,-8660.409521,1072.533697
6970.493779,-4367.215058,-8586.388927,459.657299
6970.494104,-3034.844362,-8512.368333,-766.095498
6970.494429,-3108.864956,-9844.739029,-153.219100
6970.494754,-2960.823768,-9178.553681,766.095498
6970.495079,-2368.659014,-7846.182985,1149.143247
6970.495404,-3256.906145,-9252.574275,1608.800546
6970.495729,-3849.070898,-9178.553681,1072.533697
6970.496054,-2886.803174,-8586.388927,76.609550
6970.496378,-3552.988522,-8142.265362,-612.876398
6970.496703,-4811.338623,-8956.491898,229.828649
6970.497028,-4441.235652,-9030.512492,0.000000
6970.497353,-4219.173869,-9030.512492,536.266849
6970.497678,-5033.400406,-9622.677246,766.095498
6970.498003,-4811.338623,-9400.615463,612.876398
6970.498328,-3552.988522,-8734.430116,0.000000
6970.498652,-3775.050304,-9548.656652,-229.828649
6970.498977,-3849.070898,-9104.533087,0.000000
6970.499302,-3034.844362,-8438.347739,229.828649
6970.499627,-3627.009116,-8882.471304,1072.533697
6970.499952,-4145.153275,-8734.430116,1532.190996
6970.500277,-2886.803174,-8364.327145,1225.752797
6970.500602,-3108.864956,-8290.306550,-383.047749
6970.500926,-3330.926739,-9622.677246,766.095498
6970.501251,-3478.967927,-7994.224174,689.485948
6970.501576,-3627.009116,-8956.491898,995.924147
6970.501901,-4737.318029,-9918.759623,1915.238745
6970.502226,-4219.173869,-9326.594869,1072.533697
6970.502551,-4145.153275,-8586.388927,229.828649
6970.502876,-4145.153275,-9474.636058,612.876398
6970.503200,-3997.112087,-10288.862594,919.314598
6970.503525,-3552.988522,-8956.491898,766.095498
6970.503850,-3256.906145,-8438.347739,1915.238745
6970.504175,-4367.215058,-8956.491898,2451.505594
6970.504500,-3701.029710,-7698.141797,1455.581446
6970.504825,-2664.741391,-8068.244768,-383.047749
6970.505150,-3034.844362,-8438.347739,153.219100
6970.505474,-3182.885551,-8290.306550,919.314598
6970.505799,-2590.720797,-8808.450710,1915.238745
6970.506124,-3923.091493,-9104.533087,3064.381992
6970.506449,-3923.091493,-9696.697840,3064.381992
6970.506774,-2146.597232,-9030.512492,1685.410096
6970.507099,-2368.659014,-9252.574275,2068.457845
6970.507424,-3849.070898,-8956.491898,3294.210641
6970.507748,-4219.173869,-8734.430116,2298.286494
6970.508073,-3849.070898,-8290.306550,1608.800546
6970.508398,-4293.194464,-8808.450710,1378.971896
6970.508723,-4145.153275,-7550.100608,459.657299
6970.509048,-3997.112087,-7402.059420,-229.828649
6970.509373,-4367.215058,-8586.388927,-306.438199
6970.509698,-3478.967927,-8660.409521,383.047749
6970.510022,-2294.638420,-7994.224174,459.657299
6970.510347,-3775.050304,-8808.450710,2911.162892
6970.510672,-3923.091493,-9474.636058,3677.258390
6970.510997,-2368.659014,-9326.594869,2911.162892
6970.511322,-2368.659014,-9844.739029,2068.457845
6970.511647,-3627.009116,-9326.594869,2604.724693
6970.511972,-4367.215058,-8586.388927,2068.457845
6970.512296,-4811.338623,-7920.203579,1991.848295
6970.512621,-5847.626942,-8438.347739,919.314598
6970.512946,-4293.194464,-7698.141797,-1072.533697
6970.513271,-4219.173869,-6957.935855,-1225.752797
6970.513596,-4737.318029,-7402.059420,306.438199
6970.513921,-3849.070898,-8068.244768,0.000000
6970.514246,-2960.823768,-7920.203579,-536.266849
6970.514570,-3775.050304,-7994.224174,612.876398
6970.514895,-3627.009116,-9400.615463,1302.362347
6970.515220,-2738.761985,-9030.512492,689.485948
6970.515545,-2812.782580,-9844.739029,153.219100
6970.515870,-3552.988522,-10732.986159,689.485948
6970.516195,-3182.885551,-9548.656652,1149.143247
6970.516520,-4219.173869,-8438.347739,1149.143247
6970.516844,-4219.173869,-9326.594869,1378.971896
6970.517169,-3701.029710,-8882.471304,-1072.533697
6970.517494,-3330.926739,-7179.997637,-2987.772442
6970.517819,-4293.194464,-7846.182985,-2528.115143
6970.518144,-4441.235652,-8438.347739,-1532.190996
6970.518469,-3256.906145,-8364.327145,-2298.286494
6970.518794,-2960.823768,-8660.409521,-1149.143247
6970.519118,-3330.926739,-10140.821405,0.000000
6970.519443,-3108.864956,-8586.388927,689.485948
6970.519768,-2442.679609,-9992.780217,-459.657299
6970.520093,-3182.885551,-10584.944971,-919.314598
6970.520418,-3108.864956,-10066.800811,-1149.143247
6970.520743,-3404.947333,-8882.471304,-1072.533697
6970.521068,-5181.441594,-9178.553681,-383.047749
6970.521392,-5181.441594,-8586.388927,-1378.971896
6970.521717,-4367.215058,-8808.450710,-3600.648841
6970.522042,-4367.215058,-9474.636058,-3983.696590
6970.522367,-4663.297435,-9400.615463,-2604.724693
6970.522692,-3849.070898,-9030.512492,-1991.848295
6970.523017,-3997.112087,-9844.739029,-766.095498
6970.523342,-4071.132681,-10436.903782,-919.314598
6970.523666,-3108.864956,-9474.636058,-153.219100
6970.523991,-2664.741391,-9622.677246,-383.047749
6970.524316,-3701.029710,-10066.800811,-536.266849
6970.524641,-3478.967927,-9844.739029,-459.657299
6970.524966,-3478.967927,-8734.430116,-383.047749
6970.525291,-4737.318029,-9252.574275,536.266849
6970.525616,-4663.297435,-8216.285956,306.438199
6970.525940,-3849.070898,-7254.018232,-612.876398
6970.526265,-4367.215058,-8068.244768,-1225.752797
6970.526590,-4219.173869,-8586.388927,-1378.971896
6970.526915,-3849.070898,-7624.121203,-1225.752797
6970.527240,-4293.194464,-8882.471304,-229.828649
6970.527565,-4737.318029,-9696.697840,1072.533697
6970.527890,-3701.029710,-9622.677246,612.876398
6970.528214,-2812.782580,-10140.821405,306.438199
6970.528539,-3034.844362,-10510.924376,1532.190996
6970.528864,-3034.844362,-9252.574275,2221.676944
6970.529189,-2812.782580,-9104.533087,2374.896044
6970.529514,-3182.885551,-8808.450710,2451.505594
6970.529839,-3627.009116,-7698.141797,2298.286494
6970.530164,-3330.926739,-7105.977043,459.657299
6970.530488,-3701.029710,-7179.997637,229.828649
6970.530813,-3923.091493,-7550.100608,1225.752797
6970.531138,-2886.803174,-7105.977043,0.000000
6970.531463,-3849.070898,-8068.244768,766.095498
6970.531788,-4441.235652,-8734.430116,2145.067394
6970.532113,-3627.009116,-9252.574275,1838.629195
6970.532438,-2442.679609,-8882.471304,995.924147
6970.532762,-2738.761985,-9696.697840,1455.581446
6970.533087,-3034.844362,-9030.512492,2451.505594
6970.533412,-2738.761985,-8734.430116,3064.381992
6970.533737,-3997.112087,-8956.491898,3294.210641
6970.534062,-4293.194464,-9030.512492,2374.896044
6970.534387,-3478.967927,-7846.182985,383.047749
6970.534712,-3701.029710,-7772.162391,-612.876398
6970.535037,-4441.235652,-7772.162391,612.876398
6970.535361,-3182.885551,-8512.368333,-306.438199
6970.535686,-3182.885551,-7772.162391,153.219100
6970.536011,-3478.967927,-8956.491898,2145.067394
6970.536336,-3701.029710,-8956.491898,2451.505594
6970.536661,-2368.659014,-8882.471304,919.314598
6970.536986,-2738.761985,-9844.739029,689.485948
6970.537311,-2960.823768,-9400.615463,1685.410096
6970.537635,-2738.761985,-8808.450710,1302.362347
6970.537960,-3701.029710,-8660.409521,2374.896044
6970.538285,-4589.276840,-9178.553681,2068.457845
6970.538610,-4219.173869,-8068.244768,0.000000
6970.538935,-4293.194464,-7772.162391,-1378.971896
6970.539260,-4885.359217,-8068.244768,-1378.971896
6970.539585,-4515.256246,-8586.388927,-1225.752797
6970.539909,-4441.235652,-7994.224174,-689.485948
6970.540234,-4589.276840,-9622.677246,-536.266849
6970.540559,-4071.132681,-9474.636058,76.609550
6970.540884,-3330.926739,-9178.553681,-383.047749
6970.541209,-3552.988522,-10288.862594,0.000000
6970.541534,-3330.926739,-10362.883188,153.219100
6970.541859,-3182.885551,-9844.739029,0.000000
6970.542183,-3330.926739,-9252.574275,383.047749
6970.542508,-3849.070898,-9622.677246,229.828649
6970.542833,-3034.844362,-8290.306550,-612.876398
6970.543158,-3627.009116,-8364.327145,-1149.143247
6970.543483,-4515.256246,-9104.533087,-1302.362347
6970.543808,-3775.050304,-8882.471304,-1762.019645
6970.544133,-3701.029710,-7920.203579,-1991.848295
6970.544457,-5033.400406,-9844.739029,-842.705048
6970.544782,-5033.400406,-9474.636058,-766.095498
6970.545107,-2960.823768,-9252.574275,-1762.019645
6970.545432,-3552.988522,-9548.656652,-1532.190996
6970.545757,-4293.194464,-9844.739029,-306.438199
6970.546082,-3182.885551,-9696.697840,-383.047749
6970.546407,-3182.885551,-9474.636058,-229.828649
6970.546731,-3997.112087,-9474.636058,306.438199
6970.547056,-3849.070898,-8364.327145,-306.438199
6970.547381,-3627.009116,-7846.182985,-919.314598
6970.547706,-4367.215058,-8882.471304,-842.705048
6970.548031,-3478.967927,-9326.594869,-1532.190996
6970.548356,-2664.741391,-8068.244768,-1685.410096
6970.548681,-3627.009116,-8660.409521,76.609550
6970.549005,-4293.194464,-9252.574275,1378.971896
6970.549330,-3330.926739,-9030.512492,0.000000
6970.549655,-2960.823768,-9252.574275,-919.314598
6970.549980,-3404.947333,-9104.533087,-612.876398
6970.550305,-3627.009116,-8660.409521,-689.485948
6970.550630,-3849.070898,-8438.347739,229.828649
6970.550955,-4145.153275,-9104.533087,766.095498
6970.551279,-4071.132681,-7698.141797,229.828649
6970.551604,-3923.091493,-6587.832884,-995.924147
6970.551929,-4515.256246,-7476.080014,-1378.971896
6970.552254,-4737.318029,-8438.347739,-1072.533697
6970.552579,-3182.885551,-9252.574275,-1302.362347
6970.552904,-3701.029710,-9326.594869,612.876398
6970.553229,-4145.153275,-9326.594869,2681.334243
6970.553553,-3701.029710,-8512.368333,2374.896044
6970.553878,-2590.720797,-9992.780217,689.485948
6970.554203,-2738.761985,-10140.821405,76.609550
6970.554528,-2812.782580,-9104.533087,-919.314598
6970.554853,-3923.091493,-8290.306550,1072.533697
6970.555178,-4737.318029,-8068.244768,2834.553343
6970.555503,-4219.173869,-7994.224174,1455.581446
6970.555827,-3330.926739,-8290.306550,-306.438199
6970.556152,-4737.318029,-7698.141797,-612.876398
6970.556477,-4737.318029,-8068.244768,0.000000
6970.556802,-3701.029710,-8586.388927,-229.828649
6970.557127,-3552.988522,-8216.285956,459.657299
6970.557452,-3478.967927,-9474.636058,1225.752797
6970.557777,-3552.988522,-8660.409521,1072.533697
6970.558101,-3034.844362,-9474.636058,919.314598
6970.558426,-3034.844362,-10584.944971,1072.533697
6970.558751,-2590.720797,-9844.739029,1455.581446
6970.559076,-2812.782580,-8068.244768,1225.752797
6970.559401,-3478.967927,-8586.388927,2987.772442
6970.559726,-3997.112087,-8512.368333,2221.676944
6970.560051,-3552.988522,-8660.409521,383.047749
6970.560375,-3923.091493,-9030.512492,-612.876398
6970.560700,-4219.173869,-8660.409521,0.000000
6970.561025,-3330.926739,-8290.306550,-459.657299
6970.561350,-3404.947333,-8512.368333,536.266849
6970.561675,-4737.318029,-9622.677246,995.924147
6970.562000,-3849.070898,-9030.512492,306.438199
6970.562325,-2590.720797,-8290.306550,-306.438199
6970.562649,-2960.823768,-9252.574275,459.657299
6970.562974,-3256.906145,-9548.656652,1072.533697
6970.563299,-3034.844362,-7698.141797,689.485948
6970.563624,-3997.112087,-8068.244768,1608.800546
6970.563949,-3849.070898,-7698.141797,1149.143247
6970.564274,-3108.864956,-8068.244768,-306.438199
6970.564599,-3701.029710,-8586.388927,-1685.410096
6970.564923,-4219.173869,-9548.656652,-459.657299
6970.565248,-3404.947333,-9622.677246,0.000000
6970.565573,-3552.988522,-9030.512492,536.266849
6970.565898,-4737.318029,-9622.677246,1455.581446
6970.566223,-4441.235652,-8808.450710,1225.752797
6970.566548,-2368.659014,-9178.553681,0.000000
6970.566873,-3478.967927,-9918.759623,-229.828649
6970.567197,-4589.276840,-9104.533087,919.314598
6970.567522,-3849.070898,-7328.038826,919.314598
6970.567847,-3923.091493,-7772.162391,842.705048
6970.568172,-4071.132681,-8438.347739,0.000000
6970.568497,-3997.112087,-7550.100608,-2221.676944
6970.568822,-4071.132681,-7920.203579,-1149.143247
6970.569147,-3552.988522,-8808.450710,-536.266849
6970.569471,-2442.679609,-9030.512492,-306.438199
6970.569796,-2516.700203,-9548.656652,0.000000
6970.570121,-3923.091493,-10288.862594,1762.019645
6970.570446,-3775.050304,-9918.759623,2068.457845
6970.570771,-3108.864956,-9252.574275,689.485948
6970.571096,-3034.844362,-9992.780217,76.609550
6970.571421,-3923.091493,-9918.759623,76.609550
6970.571746,-4219.173869,-8142.265362,766.095498
6970.572070,-4663.297435,-8438.347739,1302.362347
6970.572395,-4885.359217,-7772.162391,919.314598
6970.572720,-4441.235652,-7254.018232,-1455.581446
6970.573045,-4145.153275,-8142.265362,-1838.629195
6970.573370,-4071.132681,-8364.327145,-1302.362347
6970.573695,-2738.761985,-8808.450710,-306.438199
6970.574020,-3034.844362,-8660.409521,0.000000
6970.574344,-3404.947333,-9770.718434,1838.629195
6970.574669,-3330.926739,-10140.821405,1838.629195
6970.574994,-2738.761985,-9178.553681,1302.362347
6970.575319,-3182.885551,-10436.903782,383.047749
6970.575644,-3330.926739,-9844.739029,-383.047749
6970.575969,-3182.885551,-9326.594869,0.000000
6970.576294,-4219.173869,-8808.450710,536.266849
6970.576618,-5033.400406,-8586.388927,1378.971896
6970.576943,-4145.153275,-7402.059420,-383.047749
6970.577268,-3404.947333,-7772.162391,-1838.629195
6970.577593,-4589.276840,-8216.285956,-1072.533697
6970.577918,-4293.194464,-7476.080014,76.609550
6970.578243,-3775.050304,-8438.347739,-459.657299
6970.578568,-3923.091493,-8438.347739,229.828649
6970.578892,-4589.276840,-8586.388927,995.924147
6970.579217,-3849.070898,-9326.594869,229.828649
6970.579542,-2960.823768,-9252.574275,-229.828649
6970.579867,-3256.906145,-9548.656652,-306.438199
6970.580192,-2664.741391,-9178.553681,842.705048
6970.580517,-3330.926739,-7476.080014,383.047749
6970.580842,-4293.194464,-8438.347739,1532.190996
6970.581167,-4145.153275,-8290.306550,-229.828649
6970.581492,-3034.844362,-7550.100608,-1838.629195
6970.581817,-3923.091493,-8364.327145,-2221.676944
6970.582142,-3701.029710,-8216.285956,-995.924147
6970.582467,-3182.885551,-7550.100608,-1225.752797
6970.582792,-4145.153275,-8956.491898,229.828649
6970.583117,-5181.441594,-9548.656652,689.485948
6970.583442,-3627.009116,-9178.553681,0.000000
6970.583767,-2886.803174,-9474.636058,-612.876398
6970.584092,-4145.153275,-9474.636058,153.219100
6970.584417,-3701.029710,-9104.533087,0.000000
6970.584742,-4589.276840,-8734.430116,76.609550
6970.585066,-4219.173869,-8438.347739,536.266849
6970.585391,-3701.029710,-8216.285956,-1608.800546
6970.585716,-3923.091493,-8142.265362,-2374.896044
6970.586041,-3923.091493,-9030.512492,-1762.019645
6970.586366,-2738.761985,-8956.491898,-1915.238745
6970.586691,-2442.679609,-9474.636058,-1685.410096
6970.587016,-3552.988522,-9474.636058,0.000000
6970.587341,-3849.070898,-10362.883188,1302.362347
6970.587666,-2590.720797,-10732.986159,-383.047749
6970.587991,-2886.803174,-10362.883188,-612.876398
6970.588316,-3997.112087,-9918.759623,-153.219100
6970.588641,-3775.050304,-9548.656652,459.657299
6970.588966,-3997.112087,-9104.533087,536.266849
6970.589291,-4515.256246,-9474.636058,689.485948
6970.589616,-4293.194464,-7846.182985,-995.924147
6970.589941,-4219.173869,-7328.038826,-1915.238745
6970.590266,-4811.338623,-8142.265362,-1072.533697
6970.590591,-4441.235652,-8586.388927,-1225.752797
6970.590916,-3256.906145,-8512.368333,-1455.581446
6970.591241,-3478.967927,-8882.471304,-383.047749
6970.591566,-3923.091493,-9918.759623,919.314598
6970.591891,-2664.741391,-9474.636058,919.314598
6970.592216,-2368.659014,-10362.883188,383.047749
6970.592540,-2664.741391,-10658.965565,689.485948
6970.592865,-2368.659014,-9696.697840,1838.629195
6970.593190,-2516.700203,-8068.244768,1838.629195
6970.593515,-4219.173869,-8808.450710,2374.896044
6970.593840,-4885.359217,-8068.244768,1378.971896
6970.594165,-4145.153275,-6809.894666,-919.314598
6970.594490,-4737.318029,-6883.915261,-1225.752797
6970.594815,-5699.585753,-7698.141797,-536.266849
6970.595140,-5107.421000,-7624.121203,-689.485948
6970.595465,-4293.194464,-8438.347739,-766.095498
6970.595790,-4663.297435,-9252.574275,383.047749
6970.596115,-3478.967927,-8956.491898,1532.190996
6970.596440,-2220.617826,-9474.636058,1072.533697
6970.596765,-2516.700203,-10362.883188,919.314598
6970.597090,-2368.659014,-9992.780217,1762.019645
6970.597415,-1628.453072,-9400.615463,1915.238745
6970.597740,-2738.761985,-8956.491898,2987.772442
6970.598065,-3552.988522,-8438.347739,2681.334243
6970.598390,-3404.947333,-7846.182985,1225.752797
6970.598715,-3701.029710,-7031.956449,0.000000
6970.599040,-3849.070898,-9030.512492,-612.876398
6970.599365,-4293.194464,-7254.018232,-1072.533697
6970.599690,-4959.379811,-7846.182985,0.000000
6970.600015,-5477.523971,-9252.574275,612.876398
6970.600339,-4663.297435,-9178.553681,459.657299
6970.600664,-3775.050304,-8290.306550,153.219100
6970.600989,-3775.050304,-9992.780217,536.266849
6970.601314,-3775.050304,-9474.636058,1378.971896
6970.601639,-3182.885551,-8882.471304,1532.190996
6970.601964,-2442.679609,-10066.800811,2451.505594
6970.602289,-2516.700203,-8586.388927,2451.505594
6970.602614,-2738.761985,-8586.388927,1991.848295
6970.602939,-3256.906145,-8660.409521,1072.533697
6970.603264,-2590.720797,-8660.409521,612.876398
6970.603589,-3182.885551,-8216.285956,-306.438199
6970.603914,-3997.112087,-8216.285956,459.657299
6970.604239,-4885.359217,-8808.450710,1762.019645
6970.604564,-4589.276840,-9474.636058,306.438199
6970.604889,-3182.885551,-8734.430116,-919.314598
6970.605214,-4145.153275,-9178.553681,-459.657299
6970.605539,-4663.297435,-9326.594869,1149.143247
6970.605864,-3923.091493,-8364.327145,766.095498
6970.606189,-3256.906145,-8364.327145,995.924147
6970.606514,-4367.215058,-9104.533087,1302.362347
6970.606839,-3849.070898,-7402.059420,0.000000
6970.607164,-3923.091493,-7550.100608,-842.705048
6970.607489,-4663.297435,-9030.512492,-689.485948
6970.607813,-3182.885551,-8438.347739,-1685.410096
6970.608138,-2368.659014,-8734.430116,-1762.019645
6970.608463,-4589.276840,-8290.306550,1225.752797
6970.608788,-3849.070898,-9400.615463,1915.238745
6970.609113,-2738.761985,-9622.677246,-153.219100
6970.609438,-2960.823768,-10288.862594,-995.924147
6970.609763,-3775.050304,-10288.862594,0.000000
6970.610088,-3701.029710,-8734.430116,229.828649
6970.610413,-4219.173869,-8956.491898,536.266849
6970.610738,-5255.462188,-9844.739029,612.876398
6970.611063,-3923.091493,-8586.388927,-919.314598
6970.611388,-3849.070898,-7920.203579,-1915.238745
6970.611713,-5107.421000,-8290.306550,-995.924147
6970.612038,-4515.256246,-8660.409521,-766.095498
6970.612363,-3108.864956,-8438.347739,-1302.362347
6970.612688,-3552.988522,-8956.491898,153.219100
6970.613013,-3849.070898,-8956.491898,306.438199
6970.613338,-3108.864956,-8512.368333,1302.362347
6970.613663,-3627.009116,-10066.800811,536.266849
6970.613988,-3552.988522,-10510.924376,919.314598
6970.614313,-2812.782580,-9474.636058,995.924147
6970.614638,-3701.029710,-9104.533087,2145.067394
6970.614963,-4737.318029,-8882.471304,2987.772442
6970.615288,-3701.029710,-8364.327145,76.609550
6970.615612,-3404.947333,-7994.224174,-1302.362347
6970.615937,-4737.318029,-7846.182985,-612.876398
6970.616262,-4885.359217,-7846.182985,-229.828649
6970.616587,-3997.112087,-8142.265362,0.000000
6970.616912,-4071.132681,-8956.491898,306.438199
6970.617237,-2812.782580,-9992.780217,1149.143247
6970.617562,-2886.803174,-8438.347739,1149.143247
6970.617887,-2812.782580,-8216.285956,2604.724693
6970.618212,-2886.803174,-9844.739029,3064.381992
6970.618537,-2368.659014,-9178.553681,2068.457845
6970.618862,-2738.761985,-8734.430116,1608.800546
6970.619187,-4441.235652,-9548.656652,2911.162892
6970.619512,-3849.070898,-7402.059420,2298.286494
6970.619837,-3034.844362,-7994.224174,306.438199
6970.620162,-4515.256246,-8956.491898,689.485948
6970.620487,-4737.318029,-8438.347739,1532.190996
6970.620812,-3478.967927,-8068.244768,842.705048
6970.621137,-3775.050304,-8216.285956,1225.752797
6970.621462,-4145.153275,-9474.636058,2145.067394
6970.621787,-3256.906145,-8290.306550,1455.581446
6970.622112,-2664.741391,-8586.388927,1225.752797
6970.622437,-3404.947333,-9400.615463,2145.067394
6970.622762,-3256.906145,-8956.491898,2987.772442
6970.623086,-2886.803174,-8216.285956,2221.676944
6970.623411,-4071.132681,-8956.491898,2757.943793
6970.623736,-4515.256246,-8068.244768,2528.115143
6970.624061,-3552.988522,-7254.018232,1762.019645
6970.624386,-4293.194464,-8142.265362,459.657299
6970.624711,-4441.235652,-8734.430116,766.095498
6970.625036,-3775.050304,-7772.162391,536.266849
6970.625361,-3997.112087,-8882.471304,1532.190996
6970.625686,-4811.338623,-9548.656652,2451.505594
6970.626011,-3627.009116,-9400.615463,1991.848295
6970.626336,-2590.720797,-9400.615463,1378.971896
6970.626661,-3256.906145,-9548.656652,1608.800546
6970.626986,-3256.906145,-9326.594869,2145.067394
6970.627311,-3256.906145,-7550.100608,2145.067394
6970.627636,-3552.988522,-9400.615463,2068.457845
6970.627961,-3552.988522,-7920.203579,1762.019645
6970.628286,-3552.988522,-8142.265362,536.266849
6970.628611,-4441.235652,-8734.430116,1072.533697
6970.628936,-4145.153275,-8364.327145,1455.581446
6970.629261,-2664.741391,-8586.388927,306.438199
6970.629586,-3330.926739,-8808.450710,536.266849
6970.629911,-4293.194464,-8734.430116,2681.334243
6970.630236,-3775.050304,-9252.574275,2068.457845
6970.630561,-3108.864956,-8734.430116,766.095498
6970.630885,-3775.050304,-9770.718434,459.657299
6970.631210,-4145.153275,-9474.636058,612.876398
6970.631535,-3552.988522,-8438.347739,153.219100
6970.631860,-3849.070898,-9548.656652,1685.410096
6970.632185,-4219.173869,-8660.409521,612.876398
6970.632510,-3627.009116,-8068.244768,306.438199
6970.632835,-3997.112087,-8068.244768,153.219100
6970.633160,-3775.050304,-8808.450710,0.000000
6970.633485,-2590.720797,-9104.533087,153.219100
6970.633810,-3108.864956,-8882.471304,-229.828649
6970.634135,-3552.988522,-9992.780217,842.705048
6970.634460,-3849.070898,-9696.697840,1378.971896
6970.634785,-3330.926739,-9326.594869,76.609550
6970.635110,-4367.215058,-10510.924376,0.000000
6970.635435,-4293.194464,-10362.883188,0.000000
6970.635760,-2960.823768,-8586.388927,-459.657299
6970.636085,-3849.070898,-8438.347739,306.438199
6970.636410,-4515.256246,-8438.347739,919.314598
6970.636735,-4293.194464,-7105.977043,-229.828649
6970.637060,-4071.132681,-7994.224174,-919.314598
6970.637385,-4663.297435,-8142.265362,-919.314598
6970.637710,-3627.009116,-7994.224174,-766.095498
6970.638035,-3775.050304,-9326.594869,-459.657299
6970.638359,-4663.297435,-9252.574275,612.876398
6970.638684,-3404.947333,-9474.636058,1225.752797
6970.639009,-2960.823768,-8586.388927,153.219100
6970.639334,-3775.050304,-9252.574275,459.657299
6970.639659,-3997.112087,-10732.986159,919.314598
6970.639984,-3182.885551,-9770.718434,-306.438199
6970.640309,-3182.885551,-9030.512492,0.000000
6970.640634,-5033.400406,-10288.862594,1608.800546
6970.640959,-4071.132681,-8068.244768,536.266849
6970.641284,-3034.844362,-7402.059420,-1072.533697
6970.641609,-3923.091493,-9474.636058,-536.266849
6970.641934,-3478.967927,-8290.306550,-383.047749
6970.642259,-3034.844362,-7254.018232,-689.485948
6970.642584,-4441.235652,-8808.450710,1149.143247
6970.642909,-4589.276840,-9326.594869,1608.800546
6970.643234,-3034.844362,-8438.347739,-689.485948
6970.643559,-2960.823768,-9178.553681,842.705048
6970.643884,-4515.256246,-9474.636058,1838.629195
6970.644209,-3627.009116,-9252.574275,1455.581446
6970.644534,-3182.885551,-9400.615463,1685.410096
6970.644859,-3923.091493,-9622.677246,1838.629195
6970.645184,-3849.070898,-7698.141797,1149.143247
6970.645509,-3923.091493,-8438.347739,536.266849
6970.645834,-4811.338623,-9178.553681,536.266849
6970.646158,-2812.782580,-9326.594869,229.828649
6970.646483,-2738.761985,-8142.265362,153.219100
6970.646808,-4293.194464,-8364.327145,2145.067394
6970.647133,-4293.194464,-9474.636058,2757.943793
6970.647458,-2664.741391,-9252.574275,995.924147
6970.647783,-1924.535449,-8808.450710,536.266849
6970.648108,-3108.864956,-9400.615463,2374.896044
6970.648433,-3034.844362,-7772.162391,2987.772442
6970.648758,-3552.988522,-7846.182985,2834.553343
6970.649083,-4589.276840,-9474.636058,2145.067394
6970.649408,-3923.091493,-7994.224174,689.485948
6970.649733,-3775.050304,-7772.162391,229.828649
6970.650058,-4737.318029,-8068.244768,1149.143247
6970.650383,-4219.173869,-8808.450710,1149.143247
6970.650708,-3478.967927,-9030.512492,306.438199
6970.651033,-4219.173869,-9400.615463,1991.848295
6970.651358,-4441.235652,-9696.697840,3294.210641
6970.651683,-3330.926739,-8808.450710,2145.067394
6970.652008,-2590.720797,-8216.285956,919.314598
6970.652333,-3404.947333,-9548.656652,1762.019645
6970.652658,-2368.659014,-8438.347739,536.266849
6970.652983,-2812.782580,-7105.977043,1838.629195
6970.653308,-4293.194464,-8512.368333,2528.115143
6970.653632,-4219.173869,-7698.141797,2221.676944
6970.653957,-2812.782580,-7476.080014,229.828649
6970.654282,-3849.070898,-8142.265362,689.485948
6970.654607,-5033.400406,-8734.430116,1072.533697
6970.654932,-3627.009116,-8586.388927,689.485948
6970.655257,-3923.091493,-8956.491898,919.314598
6970.655582,-4515.256246,-9622.677246,1149.143247
6970.655907,-3923.091493,-9622.677246,459.657299
6970.656232,-3108.864956,-9252.574275,76.609550
6970.656557,-3330.926739,-10436.903782,306.438199
6970.656882,-2146.597232,-10436.903782,612.876398
6970.657207,-2294.638420,-7994.224174,766.095498
6970.657532,-3627.009116,-8956.491898,2451.505594
6970.657857,-4219.173869,-7846.182985,2068.457845
6970.658182,-3330.926739,-7402.059420,76.609550
6970.658507,-4441.235652,-8586.388927,-1072.533697
6970.658832,-5033.400406,-9252.574275,-612.876398
6970.659157,-4811.338623,-8512.368333,0.000000
6970.659482,-5329.482782,-8586.388927,306.438199
6970.659807,-4959.379811,-10288.862594,536.266849
6970.660132,-3478.967927,-9474.636058,-919.314598
6970.660457,-2886.803174,-9474.636058,-1302.362347
6970.660782,-3404.947333,-9622.677246,76.609550
6970.661107,-2516.700203,-8808.450710,919.314598
6970.661431,-1628.453072,-9326.594869,1149.143247
6970.661756,-3256.906145,-8142.265362,2298.286494
6970.662081,-3997.112087,-7772.162391,1838.629195
6970.662406,-3552.988522,-8216.285956,842.705048
6970.662731,-4663.297435,-8660.409521,-229.828649
6970.663056,-4811.338623,-9548.656652,-1302.362347
6970.663381,-3923.091493,-9326.594869,-2221.676944
6970.663706,-5033.400406,-9104.533087,-153.219100
6970.664031,-5403.503377,-10214.842000,612.876398
6970.664356,-3849.070898,-10140.821405,689.485948
6970.664681,-2738.761985,-8586.388927,-1225.752797
6970.665006,-3034.844362,-9918.759623,306.438199
6970.665331,-2886.803174,-9474.636058,919.314598
6970.665656,-2146.597232,-7846.182985,1378.971896
6970.665981,-3478.967927,-8068.244768,2068.457845
6970.666306,-3849.070898,-7846.182985,2068.457845
6970.666631,-3330.926739,-7328.038826,-842.705048
6970.666956,-4737.318029,-8364.327145,0.000000
6970.667281,-4663.297435,-9104.533087,-536.266849
6970.667606,-3849.070898,-8586.388927,-612.876398
6970.667931,-4441.235652,-9400.615463,536.266849
6970.668256,-5033.400406,-10732.986159,2374.896044
6970.668581,-4071.132681,-10658.965565,1532.190996
6970.668905,-2886.803174,-8512.368333,0.000000
6970.669230,-2886.803174,-10140.821405,1149.143247
6970.669555,-3034.844362,-9252.574275,1149.143247
6970.669880,-2516.700203,-8068.244768,1762.019645
6970.670205,-3404.947333,-8438.347739,2681.334243
6970.670530,-4293.194464,-7624.121203,3524.039291
6970.670855,-2590.720797,-7550.100608,1532.190996
6970.671180,-3404.947333,-6513.812290,0.000000
6970.671505,-4663.297435,-7846.182985,995.924147
6970.671830,-4071.132681,-8512.368333,229.828649
6970.672155,-3478.967927,-8364.327145,612.876398
6970.672480,-4589.276840,-9548.656652,2681.334243
6970.672805,-4293.194464,-9474.636058,3294.210641
6970.673130,-2812.782580,-8660.409521,1915.238745
6970.673455,-3034.844362,-10807.006753,1991.848295
6970.673780,-2886.803174,-9770.718434,2221.676944
6970.674105,-2516.700203,-7772.162391,1915.238745
6970.674430,-3256.906145,-8290.306550,2834.553343
6970.674755,-4515.256246,-8068.244768,3217.601092
6970.675080,-3256.906145,-7105.977043,1302.362347
6970.675405,-3701.029710,-7550.100608,689.485948
6970.675730,-4367.215058,-7105.977043,919.314598
6970.676055,-4071.132681,-7402.059420,689.485948
6970.676380,-4441.235652,-8290.306550,1532.190996
6970.676704,-4663.297435,-9696.697840,2374.896044
6970.677029,-4145.153275,-9770.718434,2451.505594
6970.677354,-3552.988522,-8216.285956,1838.629195
6970.677679,-3182.885551,-10288.862594,2374.896044
6970.678004,-3256.906145,-10288.862594,1532.190996
6970.678329,-3034.844362,-9178.553681,1302.362347
6970.678654,-3923.091493,-8808.450710,1838.629195
6970.678979,-4145.153275,-8660.409521,2528.115143
6970.679304,-3330.926739,-7476.080014,1378.971896
6970.679629,-3108.864956,-7698.141797,459.657299
6970.679954,-4293.194464,-8364.327145,1302.362347
6970.680279,-3330.926739,-8142.265362,153.219100
6970.680604,-2590.720797,-7698.141797,76.609550
6970.680929,-4515.256246,-8956.491898,1072.533697
6970.681254,-4367.215058,-9992.780217,1302.362347
6970.681578,-3775.050304,-9474.636058,612.876398
6970.681903,-3627.009116,-9918.759623,1072.533697
6970.682228,-4293.194464,-9992.780217,1685.410096
6970.682553,-3478.967927,-9992.780217,1225.752797
6970.682878,-3552.988522,-8734.430116,383.047749
6970.683203,-4441.235652,-9178.553681,995.924147
6970.683528,-3701.029710,-7476.080014,383.047749
6970.683853,-2960.823768,-6957.935855,-612.876398
6970.684178,-4219.173869,-8734.430116,-536.266849
6970.684503,-3552.988522,-8660.409521,-306.438199
6970.684827,-2368.659014,-8068.244768,-842.705048
6970.685152,-3552.988522,-9252.574275,612.876398
6970.685477,-3997.112087,-9030.512492,2145.067394
6970.685802,-2886.803174,-10584.944971,306.438199
6970.686127,-2442.679609,-9992.780217,-459.657299
6970.686452,-3552.988522,-10140.821405,612.876398
6970.686777,-3997.112087,-9178.553681,995.924147
6970.687102,-3775.050304,-9104.533087,612.876398
6970.687427,-4663.297435,-9474.636058,919.314598
6970.687751,-4515.256246,-8808.450710,-459.657299
6970.688076,-4515.256246,-7105.977043,-1378.971896
6970.688401,-4885.359217,-7846.182985,-995.924147
6970.688726,-4811.338623,-8142.265362,-1072.533697
6970.689051,-3627.009116,-8068.244768,-1378.971896
6970.689376,-3923.091493,-8438.347739,-306.438199
6970.689701,-4367.215058,-9696.697840,919.314598
6970.690026,-3330.926739,-9474.636058,995.924147
6970.690351,-2516.700203,-9622.677246,536.266849
6970.690675,-2590.720797,-11029.068536,1149.143247
6970.691000,-2516.700203,-9770.718434,919.314598
6970.691325,-2664.741391,-8808.450710,1378.971896
6970.691650,-4589.276840,-9178.553681,2298.286494
6970.691975,-4515.256246,-8660.409521,1302.362347
6970.692300,-3923.091493,-7179.997637,-1072.533697
6970.692625,-4441.235652,-7994.224174,-766.095498
6970.692950,-4515.256246,-7994.224174,-383.047749
6970.693275,-4589.276840,-7920.203579,-689.485948
6970.693599,-4219.173869,-8660.409521,536.266849
6970.693924,-4219.173869,-9474.636058,1455.581446
6970.694249,-3478.967927,-9178.553681,1378.971896
6970.694574,-3108.864956,-9252.574275,919.314598
6970.694899,-3627.009116,-10362.883188,1685.410096
6970.695224,-2812.782580,-9474.636058,1149.143247
6970.695549,-2368.659014,-7624.121203,2451.505594
6970.695874,-3478.967927,-9400.615463,3140.991542
6970.696199,-3997.112087,-8290.306550,2604.724693
6970.696524,-3034.844362,-7328.038826,0.000000
6970.696848,-3256.906145,-8142.265362,-612.876398
6970.697173,-3997.112087,-7624.121203,689.485948
6970.697498,-4145.153275,-7698.141797,306.438199
6970.697823,-3849.070898,-9104.533087,1685.410096
6970.698148,-3997.112087,-9622.677246,1762.019645
6970.698473,-3034.844362,-9622.677246,1915.238745
6970.698798,-2368.659014,-8956.491898,1302.362347
6970.699123,-3627.009116,-9918.759623,2145.067394
6970.699448,-4071.132681,-10214.842000,2451.505594
6970.699772,-3701.029710,-7994.224174,1762.019645
6970.700097,-4071.132681,-8956.491898,2221.676944
6970.700422,-4885.359217,-8364.327145,1838.629195
6970.700747,-4367.215058,-7328.038826,536.266849
6970.701072,-4219.173869,-8216.285956,0.000000
6970.701397,-3775.050304,-8660.409521,536.266849
6970.701722,-2812.782580,-7772.162391,229.828649
6970.702047,-2738.761985,-8586.388927,2145.067394
6970.702372,-3997.112087,-9400.615463,3447.429741
6970.702696,-2960.823768,-9548.656652,2757.943793
6970.703021,-1850.514855,-9326.594869,1149.143247
6970.703346,-2886.803174,-9770.718434,1915.238745
6970.703671,-4219.173869,-9326.594869,2604.724693
6970.703996,-3775.050304,-8290.306550,1838.629195
6970.704321,-4219.173869,-9030.512492,1685.410096
6970.704646,-5403.503377,-7328.038826,1225.752797
6970.704971,-5107.421000,-7105.977043,0.000000
6970.705296,-5033.400406,-7179.997637,-536.266849
6970.705620,-4737.318029,-7846.182985,-766.095498
6970.705945,-3256.906145,-8290.306550,-1608.800546
6970.706270,-3108.864956,-7772.162391,-612.876398
6970.706595,-4737.318029,-8586.388927,1532.190996
6970.706920,-3404.947333,-9844.739029,1991.848295
6970.707245,-1702.473667,-9252.574275,153.219100
6970.707570,-2146.597232,-10362.883188,0.000000
6970.707895,-2812.782580,-10436.903782,306.438199
6970.708220,-2812.782580,-8734.430116,766.095498
6970.708545,-3256.906145,-9548.656652,766.095498
6970.708869,-3627.009116,-8216.285956,919.314598
6970.709194,-2664.741391,-7772.162391,-919.314598
6970.709519,-3775.050304,-7402.059420,-2221.676944
6970.709844,-5255.462188,-7920.203579,-1302.362347
6970.710169,-4441.235652,-7994.224174,-2451.505594
6970.710494,-3849.070898,-8290.306550,-3447.429741
6970.710819,-4959.379811,-8956.491898,-2451.505594
6970.711144,-5255.462188,-9104.533087,-919.314598
6970.711469,-3478.967927,-9104.533087,-1072.533697
6970.711793,-3849.070898,-10288.862594,-1149.143247
6970.712118,-3627.009116,-11251.130318,-1225.752797
6970.712443,-2960.823768,-9844.739029,-1225.752797
6970.712768,-3034.844362,-9622.677246,-229.828649
6970.713093,-4441.235652,-10288.862594,153.219100
6970.713418,-2960.823768,-9326.594869,-842.705048
6970.713743,-2886.803174,-8586.388927,-3370.820191
6970.714068,-3701.029710,-9178.553681,-1532.190996
6970.714393,-3923.091493,-8882.471304,-1608.800546
6970.714717,-3627.009116,-8734.430116,-2145.067394
6970.715042,-4811.338623,-9400.615463,-1072.533697
6970.715367,-5033.400406,-9844.739029,0.000000
6970.715692,-4293.194464,-8660.409521,-766.095498
6970.716017,-4515.256246,-9474.636058,-1685.410096
6970.716342,-5255.462188,-10584.944971,-306.438199
6970.716667,-4367.215058,-8734.430116,-1455.581446
6970.716992,-3997.112087,-8882.471304,-1378.971896
6970.717317,-4811.338623,-9178.553681,76.609550
6970.717641,-3997.112087,-8438.347739,0.000000
6970.717966,-2442.679609,-8586.388927,-1149.143247
6970.718291,-3108.864956,-8808.450710,-459.657299
6970.718616,-2294.638420,-8808.450710,383.047749
6970.718941,-2516.700203,-8734.430116,842.705048
6970.719266,-3701.029710,-9474.636058,2298.286494
6970.719591,-3701.029710,-10140.821405,2298.286494
6970.719916,-3330.926739,-8734.430116,689.485948
6970.720241,-3775.050304,-9474.636058,306.438199
6970.720565,-5033.400406,-9400.615463,612.876398
6970.720890,-4663.297435,-7772.162391,612.876398
6970.721215,-3849.070898,-7772.162391,459.657299
6970.721540,-4737.318029,-7994.224174,1149.143247
6970.721865,-3923.091493,-7179.997637,842.705048
6970.722190,-3034.844362,-6513.812290,-536.266849
6970.722515,-3552.988522,-7550.100608,612.876398
6970.722840,-2960.823768,-7698.141797,1225.752797
6970.723165,-1850.514855,-8068.244768,612.876398
6970.723490,-2812.782580,-8438.347739,2298.286494
6970.723814,-3627.009116,-9918.759623,3217.601092
6970.724139,-2664.741391,-9918.759623,2068.457845
6970.724464,-2072.576638,-9992.780217,995.924147
6970.724789,-2664.741391,-10658.965565,1838.629195
6970.725114,-3478.967927,-9104.533087,3064.381992
6970.725439,-3701.029710,-8068.244768,2451.505594
6970.725764,-4737.318029,-8586.388927,2451.505594
6970.726089,-4515.256246,-7550.100608,919.314598
6970.726414,-3849.070898,-6735.874072,-1149.143247
6970.726738,-4219.173869,-7328.038826,-612.876398
6970.727063,-3923.091493,-7179.997637,0.000000
6970.727388,-2960.823768,-7772.162391,76.609550
6970.727713,-2960.823768,-8660.409521,1072.533697
6970.728038,-3552.988522,-8660.409521,2604.724693
6970.728363,-2960.823768,-8882.471304,2987.772442
6970.728688,-2146.597232,-9474.636058,1838.629195
6970.729013,-2368.659014,-10436.903782,1302.362347
6970.729338,-3404.947333,-9992.780217,1991.848295
6970.729662,-3627.009116,-8364.327145,1608.800546
6970.729987,-4737.318029,-9178.553681,2451.505594
6970.730312,-4885.359217,-8956.491898,689.485948
6970.730637,-4441.235652,-7550.100608,-536.266849
6970.730962,-5995.668130,-7476.080014,-1762.019645
6970.731287,-5181.441594,-8216.285956,-995.924147
6970.731612,-4219.173869,-8142.265362,-1762.019645
6970.731937,-3849.070898,-8290.306550,-1302.362347
6970.732262,-4811.338623,-8808.450710,0.000000
6970.732586,-3108.864956,-9548.656652,919.314598
6970.732911,-2590.720797,-9474.636058,0.000000
6970.733236,-2960.823768,-10436.903782,306.438199
6970.733561,-3034.844362,-10066.800811,1072.533697
6970.733886,-1924.535449,-9178.553681,919.314598
6970.734211,-3330.926739,-9918.759623,842.705048
6970.734536,-4367.215058,-8882.471304,766.095498
6970.734861,-3182.885551,-8290.306550,-1072.533697
6970.735186,-4663.297435,-8438.347739,-2221.676944
6970.735511,-4737.318029,-8882.471304,-2145.067394
6970.735835,-4145.153275,-8734.430116,-3217.601092
6970.736160,-4737.318029,-9474.636058,-2145.067394
6970.736485,-5403.503377,-10214.842000,-383.047749
6970.736810,-3404.947333,-10214.842000,-612.876398
6970.737135,-2886.803174,-9104.533087,-995.924147
6970.737460,-3849.070898,-10066.800811,306.438199
6970.737785,-3701.029710,-9918.759623,306.438199
6970.738110,-2664.741391,-8808.450710,0.000000
6970.738435,-3404.947333,-9030.512492,0.000000
6970.738759,-4145.153275,-8364.327145,229.828649
6970.739084,-3627.009116,-8512.368333,-919.314598
6970.739409,-4367.215058,-8068.244768,-919.314598
6970.739734,-3404.947333,-8512.368333,-1991.848295
6970.740059,-3108.864956,-8068.244768,-1685.410096
6970.740384,-3923.091493,-7846.182985,-689.485948
6970.740709,-4145.153275,-9770.718434,0.000000
6970.741034,-3849.070898,-9770.718434,0.000000
6970.741359,-3478.967927,-8956.491898,-536.266849
6970.741683,-3775.050304,-8956.491898,0.000000
6970.742008,-4293.194464,-9326.594869,76.609550
6970.742333,-3775.050304,-8882.471304,-383.047749
6970.742658,-3997.112087,-8142.265362,76.609550
6970.742983,-4515.256246,-8438.347739,842.705048
6970.743308,-3478.967927,-6809.894666,76.609550
6970.743633,-3849.070898,-7402.059420,-459.657299
6970.743958,-4367.215058,-8660.409521,0.000000
6970.744283,-3108.864956,-7994.224174,-766.095498
6970.744607,-2442.679609,-8660.409521,-689.485948
6970.744932,-3923.091493,-8660.409521,1225.752797
6970.745257,-4293.194464,-9622.677246,2145.067394
6970.745582,-2960.823768,-9326.594869,689.485948
6970.745907,-2664.741391,-9696.697840,383.047749
6970.746232,-3627.009116,-9918.759623,1302.362347
6970.746557,-3627.009116,-9178.553681,536.266849
6970.746882,-4811.338623,-9252.574275,1532.190996
6970.747207,-4737.318029,-9178.553681,1455.581446
6970.747532,-4145.153275,-7624.121203,459.657299
6970.747856,-4071.132681,-7105.977043,-612.876398
6970.748181,-5033.400406,-8660.409521,229.828649
6970.748506,-4737.318029,-8068.244768,0.000000
6970.748831,-2738.761985,-7920.203579,-1685.410096
6970.749156,-3701.029710,-8586.388927,766.095498
6970.749481,-4071.132681,-9030.512492,2604.724693
6970.749806,-2812.782580,-8808.450710,2145.067394
6970.750131,-2368.659014,-9548.656652,1072.533697
6970.750456,-2590.720797,-10140.821405,1608.800546
6970.750780,-2368.659014,-8734.430116,1991.848295
6970.751105,-2664.741391,-8660.409521,1915.238745
6970.751430,-4663.297435,-9252.574275,2834.553343
6970.751755,-3997.112087,-8438.347739,1149.143247
6970.752080,-3775.050304,-8216.285956,-459.657299
6970.752405,-4737.318029,-8808.450710,229.828649
6970.752730,-4737.318029,-8290.306550,76.609550
6970.753055,-3627.009116,-8660.409521,-842.705048
6970.753380,-4145.153275,-8438.347739,229.828649
6970.753704,-4441.235652,-8586.388927,0.000000
6970.754029,-3552.988522,-8438.347739,536.266849
6970.754354,-3330.926739,-8142.265362,-536.266849
6970.754679,-2812.782580,-9326.594869,229.828649
6970.755004,-2368.659014,-8512.368333,306.438199
6970.755329,-2294.638420,-7698.141797,1532.190996
6970.755654,-3552.988522,-8290.306550,2451.505594
6970.755979,-3923.091493,-8586.388927,1838.629195
6970.756304,-3997.112087,-8216.285956,-919.314598
6970.756628,-4293.194464,-9178.553681,-919.314598
6970.756953,-4219.173869,-9252.574275,-919.314598
6970.757278,-4071.132681,-9622.677246,-842.705048
6970.757603,-4515.256246,-10140.821405,0.000000
6970.757928,-4441.235652,-10140.821405,153.219100
6970.758253,-3108.864956,-9252.574275,-766.095498
6970.758578,-3404.947333,-8142.265362,-995.924147
6970.758903,-3627.009116,-9326.594869,-536.266849
6970.759228,-3330.926739,-8882.471304,-306.438199
6970.759553,-2738.761985,-7328.038826,-229.828649
6970.759877,-3997.112087,-7624.121203,536.266849
6970.760202,-4811.338623,-6883.915261,766.095498
6970.760527,-3923.091493,-7624.121203,-689.485948
6970.760852,-4071.132681,-9326.594869,-1149.143247
6970.761177,-3701.029710,-10214.842000,-995.924147
6970.761502,-3404.947333,-9400.615463,-536.266849
6970.761827,-4515.256246,-10288.862594,1685.410096
6970.762152,-4811.338623,-11325.150913,2298.286494
6970.762477,-2738.761985,-11177.109724,0.000000
6970.762801,-2368.659014,-9844.739029,-2145.067394
6970.763126,-3478.967927,-8956.491898,536.266849
6970.763451,-3627.009116,-8438.347739,1149.143247
6970.763776,-2442.679609,-7328.038826,459.657299
6970.764101,-3701.029710,-7698.141797,612.876398
6970.764426,-4515.256246,-7624.121203,306.438199
6970.764751,-3923.091493,-6143.709319,-1302.362347
6970.765076,-4515.256246,-6957.935855,-1762.019645
6970.765401,-5033.400406,-8956.491898,-612.876398
6970.765725,-3923.091493,-8660.409521,-1225.752797
6970.766050,-4071.132681,-9252.574275,306.438199
6970.766375,-4737.318029,-10288.862594,1762.019645
6970.766700,-3552.988522,-11177.109724,1072.533697
6970.767025,-2442.679609,-10658.965565,-612.876398
6970.767350,-2368.659014,-11177.109724,0.000000
6970.767675,-2590.720797,-9030.512492,612.876398
6970.768000,-3330.926739,-7254.018232,1838.629195
6970.768325,-3775.050304,-7994.224174,1762.019645
6970.768649,-3627.009116,-6883.915261,0.000000
6970.768974,-3849.070898,-6661.853478,-1302.362347
6970.769299,-4737.318029,-6735.874072,-1762.019645
6970.769624,-5255.462188,-7254.018232,-536.266849
6970.769949,-4367.215058,-7772.162391,-995.924147
6970.770274,-4441.235652,-8586.388927,-1991.848295
6970.770599,-4885.359217,-8956.491898,229.828649
6970.770924,-4293.194464,-10066.800811,0.000000
6970.771249,-3775.050304,-9104.533087,-383.047749
6970.771574,-2886.803174,-10658.965565,-612.876398
6970.771898,-2960.823768,-10140.821405,-306.438199
6970.772223,-2886.803174,-8290.306550,0.000000
6970.772548,-2960.823768,-8734.430116,612.876398
6970.772873,-3108.864956,-8586.388927,1072.533697
6970.773198,-2812.782580,-7994.224174,-153.219100
6970.773523,-2664.741391,-7624.121203,-1072.533697
6970.773848,-3627.009116,-8512.368333,-536.266849
6970.774173,-4071.132681,-8142.265362,-383.047749
6970.774498,-3627.009116,-8364.327145,-459.657299
6970.774822,-5033.400406,-9104.533087,-306.438199
6970.775147,-5033.400406,-9326.594869,76.609550
6970.775472,-3923.091493,-9400.615463,-689.485948
6970.775797,-4293.194464,-10066.800811,-612.876398
6970.776122,-4515.256246,-10140.821405,229.828649
6970.776447,-3701.029710,-8956.491898,0.000000
6970.776772,-3034.844362,-9030.512492,0.000000
6970.777097,-4293.194464,-8956.491898,536.266849
6970.777422,-3627.009116,-7624.121203,-612.876398
6970.777746,-2664.741391,-8660.409521,-1991.848295
6970.778071,-3256.906145,-9104.533087,-1225.752797
6970.778396,-2664.741391,-9252.574275,-995.924147
6970.778721,-2442.679609,-9400.615463,-306.438199
6970.779046,-3701.029710,-9844.739029,1532.190996
6970.779371,-4071.132681,-10732.986159,2145.067394
6970.779696,-2960.823768,-9770.718434,766.095498
6970.780021,-3552.988522,-9992.780217,536.266849
6970.780346,-5033.400406,-10288.862594,1685.410096
6970.780670,-4737.318029,-9030.512492,1149.143247
6970.780995,-4811.338623,-8068.244768,383.047749
6970.781320,-5699.585753,-8290.306550,612.876398
6970.781645,-4811.338623,-7105.977043,-306.438199
6970.781970,-4737.318029,-6809.894666,-2298.286494
6970.782295,-4663.297435,-7031.956449,-1608.800546
6970.782620,-3256.906145,-8512.368333,-536.266849
6970.782945,-2294.638420,-7698.141797,-995.924147
6970.783270,-2590.720797,-8808.450710,995.924147
6970.783595,-2738.761985,-10436.903782,2221.676944
6970.783920,-2220.617826,-9844.739029,2068.457845
6970.784245,-1480.411884,-10436.903782,459.657299
6970.784570,-2220.617826,-10140.821405,1762.019645
6970.784895,-3478.967927,-9252.574275,2374.896044
6970.785220,-3627.009116,-9252.574275,1838.629195
6970.785545,-4737.318029,-8734.430116,2145.067394
6970.785870,-4737.318029,-7624.121203,842.705048
6970.786195,-4515.256246,-6587.832884,-459.657299
6970.786520,-5403.503377,-6661.853478,-306.438199
6970.786845,-5477.523971,-7179.997637,-766.095498
6970.787170,-4515.256246,-7105.977043,-1455.581446
6970.787495,-4515.256246,-7772.162391,-306.438199
6970.787820,-4441.235652,-8438.347739,612.876398
6970.788145,-3182.885551,-9326.594869,842.705048
6970.788470,-2146.597232,-9844.739029,1072.533697
6970.788795,-1554.432478,-11177.109724,1225.752797
6970.789120,-1110.308913,-10140.821405,1991.848295
6970.789445,-1480.411884,-8882.471304,2681.334243
6970.789770,-2960.823768,-10214.842000,3524.039291
6970.790095,-3034.844362,-9104.533087,2145.067394
6970.790420,-2664.741391,-7846.182985,229.828649
6970.790745,-4737.318029,-8512.368333,0.000000
6970.791069,-5107.421000,-7698.141797,-689.485948
6970.791394,-4589.276840,-7772.162391,-1378.971896
6970.791719,-5625.565159,-8438.347739,-995.924147
6970.792044,-5625.565159,-8364.327145,0.000000
6970.792369,-4367.215058,-8808.450710,-229.828649
6970.792694,-4071.132681,-8586.388927,0.000000
6970.793019,-3849.070898,-10436.903782,995.924147
6970.793344,-2738.761985,-9474.636058,689.485948
6970.793669,-2294.638420,-8364.327145,1225.752797
6970.793994,-3330.926739,-9992.780217,1608.800546
6970.794319,-3627.009116,-9030.512492,1838.629195
6970.794644,-2516.700203,-8216.285956,-153.219100
6970.794969,-3330.926739,-8734.430116,-383.047749
6970.795294,-4367.215058,-8734.430116,0.000000
6970.795619,-3775.050304,-8068.244768,-459.657299
6970.795944,-4071.132681,-8808.450710,-919.314598
6970.796269,-4737.318029,-9400.615463,-153.219100
6970.796594,-4071.132681,-8882.471304,-306.438199
6970.796919,-3552.988522,-8808.450710,-1225.752797
6970.797244,-4071.132681,-9474.636058,-383.047749
6970.797569,-4219.173869,-9918.759623,153.219100
6970.797894,-2886.803174,-8364.327145,306.438199
6970.798219,-3330.926739,-8882.471304,459.657299
6970.798544,-4071.132681,-9252.574275,1302.362347
6970.798869,-4441.235652,-8364.327145,153.219100
6970.799194,-4071.132681,-8956.491898,-383.047749
6970.799519,-3923.091493,-9178.553681,0.000000
6970.799844,-3330.926739,-8808.450710,-459.657299
6970.800169,-3478.967927,-9178.553681,306.438199
6970.800494,-4071.132681,-9400.615463,1149.143247
6970.800819,-3552.988522,-9548.656652,919.314598
6970.801144,-2812.782580,-8882.471304,0.000000
6970.801468,-3478.967927,-9252.574275,0.000000
6970.801793,-3997.112087,-9030.512492,536.266849
6970.802118,-3330.926739,-8882.471304,536.266849
6970.802443,-3478.967927,-8956.491898,612.876398
6970.802768,-3849.070898,-8142.265362,1302.362347
6970.803093,-3552.988522,-8586.388927,612.876398
6970.803418,-4293.194464,-7994.224174,229.828649
6970.803743,-4293.194464,-9474.636058,612.876398
6970.804068,-2960.823768,-9474.636058,-306.438199
6970.804393,-3182.885551,-9400.615463,919.314598
6970.804718,-4441.235652,-9400.615463,3064.381992
6970.805043,-3701.029710,-10288.862594,3140.991542
6970.805368,-2442.679609,-9770.718434,1762.019645
6970.805693,-3034.844362,-8808.450710,1455.581446
6970.806018,-4071.132681,-9474.636058,1762.019645
6970.806343,-4145.153275,-7846.182985,1838.629195
6970.806668,-4145.153275,-7920.203579,1762.019645
6970.806993,-4589.276840,-8068.244768,1378.971896
6970.807318,-3997.112087,-6661.853478,459.657299
6970.807643,-3775.050304,-7105.977043,-766.095498
6970.807968,-4441.235652,-7476.080014,1302.362347
6970.808293,-3182.885551,-8364.327145,842.705048
6970.808618,-2072.576638,-9104.533087,536.266849
6970.808943,-3108.864956,-8882.471304,2145.067394
6970.809268,-3627.009116,-9992.780217,3830.477490
6970.809593,-2516.700203,-9918.759623,2681.334243
6970.809918,-1258.350101,-10510.924376,2451.505594
6970.810243,-2368.659014,-10140.821405,2604.724693
6970.810568,-3552.988522,-9400.615463,3677.258390
6970.810893,-3701.029710,-8216.285956,2528.115143
6970.811218,-4663.297435,-8512.368333,2451.505594
6970.811543,-4515.256246,-7698.141797,459.657299
6970.811867,-4589.276840,-6439.791695,-383.047749
6970.812192,-4811.338623,-7179.997637,536.266849
6970.812517,-4737.318029,-7105.977043,0.000000
6970.812842,-3997.112087,-7254.018232,76.609550
6970.813167,-4737.318029,-8364.327145,1072.533697
6970.813492,-4441.235652,-8956.491898,2068.457845
6970.813817,-3034.844362,-9178.553681,1302.362347
6970.814142,-2664.741391,-9474.636058,1225.752797
6970.814467,-3330.926739,-10881.027347,1685.410096
6970.814792,-2368.659014,-9770.718434,1991.848295
6970.815117,-2072.576638,-9474.636058,2528.115143
6970.815442,-2886.803174,-9622.677246,2145.067394
6970.815767,-3182.885551,-9252.574275,1915.238745
6970.816092,-3627.009116,-8216.285956,383.047749
6970.816417,-3923.091493,-8438.347739,229.828649
6970.816742,-4219.173869,-8142.265362,153.219100
6970.817067,-3923.091493,-8068.244768,842.705048
6970.817392,-4441.235652,-8438.347739,153.219100
6970.817717,-4737.318029,-8956.491898,2221.676944
6970.818042,-4293.194464,-8586.388927,919.314598
6970.818367,-4219.173869,-9326.594869,153.219100
6970.818692,-4589.276840,-10214.842000,612.876398
6970.819017,-3849.070898,-9030.512492,0.000000
6970.819342,-3108.864956,-8660.409521,536.266849
6970.819667,-3552.988522,-9400.615463,919.314598
6970.819992,-3256.906145,-8216.285956,1838.629195
6970.820317,-2960.823768,-7994.224174,-383.047749
6970.820642,-3256.906145,-9030.512492,229.828649
6970.820967,-3256.906145,-8438.347739,76.609550
6970.821292,-2368.659014,-8734.430116,153.219100
6970.821617,-3552.988522,-8808.450710,383.047749
6970.821942,-4589.276840,-10436.903782,2451.505594
6970.822266,-4293.194464,-9030.512492,306.438199
6970.822591,-4145.153275,-9326.594869,0.000000
6970.822916,-4367.215058,-10436.903782,0.000000
6970.823241,-4293.194464,-9474.636058,153.219100
6970.823566,-4515.256246,-9030.512492,0.000000
6970.823891,-4663.297435,-8956.491898,1302.362347
6970.824216,-3701.029710,-8068.244768,1072.533697
6970.824541,-3182.885551,-6883.915261,-612.876398
6970.824866,-3923.091493,-7254.018232,153.219100
6970.825191,-3923.091493,-8068.244768,153.219100
6970.825516,-2368.659014,-7994.224174,-995.924147
6970.825841,-3256.906145,-8142.265362,-306.438199
6970.826166,-4737.318029,-9326.594869,1378.971896
6970.826491,-3775.050304,-8734.430116,1149.143247
6970.826816,-2812.782580,-9770.718434,306.438199
6970.827141,-3627.009116,-10066.800811,-229.828649
6970.827466,-3627.009116,-9474.636058,153.219100
6970.827791,-3330.926739,-8882.471304,689.485948
6970.828116,-4219.173869,-9918.759623,1532.190996
6970.828441,-4589.276840,-9030.512492,1072.533697
6970.828766,-3849.070898,-7772.162391,-229.828649
6970.829091,-4293.194464,-8364.327145,-306.438199
6970.829416,-4441.235652,-8512.368333,689.485948
6970.829741,-3182.885551,-8142.265362,-383.047749
6970.830066,-3775.050304,-8068.244768,0.000000
6970.830391,-4811.338623,-8586.388927,1225.752797
6970.830716,-3923.091493,-8290.306550,1532.190996
6970.831041,-3330.926739,-8808.450710,0.000000
6970.831366,-3478.967927,-9252.574275,-383.047749
6970.831691,-3923.091493,-9474.636058,1455.581446
6970.832016,-3034.844362,-8660.409521,1302.362347
6970.832341,-4071.132681,-10288.862594,2145.067394
6970.832665,-3997.112087,-9622.677246,1762.019645
6970.832990,-3701.029710,-8660.409521,536.266849
6970.833315,-3701.029710,-8808.450710,612.876398
6970.833640,-3256.906145,-8512.368333,536.266849
6970.833965,-2664.741391,-9252.574275,612.876398
6970.834290,-3552.988522,-9178.553681,1378.971896
6970.834615,-4219.173869,-8882.471304,2757.943793
6970.834940,-3404.947333,-8956.491898,2374.896044
6970.835265,-3404.947333,-8068.244768,1149.143247
6970.835590,-3552.988522,-9548.656652,766.095498
6970.835915,-4515.256246,-8660.409521,995.924147
6970.836240,-3552.988522,-7476.080014,919.314598
6970.836565,-4219.173869,-8734.430116,1608.800546
6970.836890,-4737.318029,-8512.368333,2604.724693
6970.837215,-4293.194464,-8882.471304,1302.362347
6970.837540,-4219.173869,-8290.306550,459.657299
6970.837865,-3775.050304,-9696.697840,995.924147
6970.838190,-2516.700203,-9252.574275,383.047749
6970.838515,-2664.741391,-8808.450710,1378.971896
6970.838840,-3849.070898,-9548.656652,2451.505594
6970.839165,-3108.864956,-8882.471304,2451.505594
6970.839490,-1924.535449,-7846.182985,1072.533697
6970.839815,-2738.761985,-8586.388927,1149.143247
6970.840140,-3923.091493,-8660.409521,1838.629195
6970.840465,-3108.864956,-7772.162391,1762.019645
6970.840790,-3330.926739,-7994.224174,1915.238745
6970.841115,-4737.318029,-8808.450710,1915.238745
6970.841440,-4441.235652,-6809.894666,1072.533697
6970.841765,-4515.256246,-7550.100608,76.609550
6970.842090,-5255.462188,-8882.471304,0.000000
6970.842415,-4367.215058,-8290.306550,-536.266849
6970.842740,-3478.967927,-8882.471304,0.000000
6970.843064,-4515.256246,-8808.450710,1225.752797
6970.843389,-3923.091493,-9696.697840,1915.238745
6970.843714,-2220.617826,-9030.512492,459.657299
6970.844039,-1258.350101,-10066.800811,76.609550
6970.844364,-2072.576638,-9252.574275,1378.971896
6970.844689,-2368.659014,-8660.409521,2374.896044
6970.845014,-2812.782580,-7994.224174,2374.896044
6970.845339,-3404.947333,-8734.430116,1302.362347
6970.845664,-3478.967927,-9030.512492,-306.438199
6970.845989,-4589.276840,-7772.162391,-1378.971896
6970.846314,-5329.482782,-9474.636058,-306.438199
6970.846639,-5033.400406,-9252.574275,-536.266849
6970.846964,-4293.194464,-8956.491898,-1225.752797
6970.847289,-5773.606348,-8882.471304,536.266849
6970.847614,-4737.318029,-9326.594869,536.266849
6970.847939,-4071.132681,-9178.553681,0.000000
6970.848264,-3034.844362,-9770.718434,-995.924147
6970.848589,-2738.761985,-9918.759623,153.219100
6970.848914,-2590.720797,-8290.306550,1225.752797
6970.849239,-3478.967927,-8512.368333,2068.457845
6970.849564,-4293.194464,-9030.512492,1685.410096
6970.849889,-3627.009116,-8216.285956,-459.657299
6970.850214,-3330.926739,-9030.512492,-2068.457845
6970.850539,-4293.194464,-9622.677246,-919.314598
6970.850864,-4663.297435,-8364.327145,-383.047749
6970.851189,-3552.988522,-9400.615463,-229.828649
6970.851514,-4589.276840,-10362.883188,459.657299
6970.851839,-4441.235652,-10584.944971,995.924147
6970.852164,-3478.967927,-10066.800811,229.828649
6970.852489,-3701.029710,-9400.615463,1455.581446
6970.852814,-3627.009116,-10066.800811,2068.457845
6970.853139,-2738.761985,-9252.574275,919.314598
6970.853463,-2812.782580,-8068.244768,612.876398
6970.853788,-4737.318029,-7772.162391,1838.629195
6970.854113,-4737.318029,-7179.997637,1225.752797
6970.854438,-3701.029710,-7031.956449,-306.438199
6970.854763,-4219.173869,-8216.285956,-459.657299
6970.855088,-4367.215058,-8808.450710,536.266849
6970.855413,-3627.009116,-8586.388927,383.047749
6970.855738,-3849.070898,-9918.759623,1838.629195
6970.856063,-3701.029710,-10436.903782,2298.286494
6970.856388,-2812.782580,-9992.780217,1915.238745
6970.856713,-2886.803174,-9326.594869,1532.190996
6970.857038,-2516.700203,-9696.697840,2451.505594
6970.857363,-2886.803174,-9474.636058,1915.238745
6970.857688,-2738.761985,-7402.059420,1685.410096
6970.858013,-3701.029710,-8438.347739,2451.505594
6970.858338,-4737.318029,-7328.038826,2528.115143
6970.858663,-3701.029710,-6661.853478,1608.800546
6970.858988,-3849.070898,-7105.977043,383.047749
6970.859313,-4293.194464,-7994.224174,995.924147
6970.859638,-3478.967927,-8290.306550,306.438199
6970.859963,-3923.091493,-8734.430116,2145.067394
6970.860288,-4737.318029,-9622.677246,3907.087040
6970.860613,-3849.070898,-10066.800811,3064.381992
6970.860938,-2886.803174,-9696.697840,1378.971896
6970.861263,-3552.988522,-10214.842000,1762.019645
6970.861588,-3404.947333,-10066.800811,2681.334243
6970.861913,-2516.700203,-7698.141797,1991.848295
6970.862238,-2590.720797,-8142.265362,3294.210641
6970.862563,-3849.070898,-7550.100608,3447.429741
6970.862888,-3034.844362,-6217.729913,1838.629195
6970.863213,-3256.906145,-6809.894666,612.876398
6970.863538,-4293.194464,-8512.368333,842.705048
6970.863862,-3182.885551,-7105.977043,-153.219100
6970.864187,-3627.009116,-7920.203579,1532.190996
6970.864512,-4737.318029,-9178.553681,2374.896044
6970.864837,-4219.173869,-9474.636058,2757.943793
6970.865162,-3478.967927,-9400.615463,1225.752797
6970.865487,-3182.885551,-10288.862594,1149.143247
6970.865812,-3775.050304,-9770.718434,1149.143247
6970.866137,-3478.967927,-8734.430116,2068.457845
6970.866462,-3997.112087,-8734.430116,1762.019645
6970.866787,-3108.864956,-9030.512492,919.314598
6970.867112,-3478.967927,-7402.059420,995.924147
6970.867437,-3627.009116,-8216.285956,153.219100
6970.867762,-3775.050304,-8660.409521,0.000000
6970.868087,-3478.967927,-8364.327145,-612.876398
6970.868412,-2590.720797,-9696.697840,-306.438199
6970.868737,-3775.050304,-8364.327145,689.485948
6970.869062,-3627.009116,-9770.718434,1915.238745
6970.869387,-3330.926739,-9326.594869,919.314598
6970.869712,-2960.823768,-10510.924376,536.266849
6970.870037,-3701.029710,-10362.883188,306.438199
6970.870362,-4071.132681,-8882.471304,766.095498
6970.870687,-4737.318029,-9474.636058,689.485948
6970.871012,-4959.379811,-9030.512492,766.095498
6970.871337,-3997.112087,-7846.182985,-306.438199
6970.871662,-4441.235652,-7920.203579,-1608.800546
6970.871987,-4663.297435,-8290.306550,-612.876398
6970.872312,-4071.132681,-8364.327145,-919.314598
6970.872637,-3775.050304,-9622.677246,-766.095498
6970.872962,-4589.276840,-9474.636058,0.000000
6970.873287,-3330.926739,-9474.636058,1302.362347
6970.873612,-3627.009116,-8808.450710,536.266849
6970.873937,-2812.782580,-10288.862594,1072.533697
6970.874261,-3404.947333,-9918.759623,1378.971896
6970.874586,-2664.741391,-9030.512492,995.924147
6970.874911,-2960.823768,-9030.512492,1072.533697
6970.875236,-4515.256246,-8438.347739,1072.533697
6970.875561,-4589.276840,-7698.141797,1455.581446
6970.875886,-3923.091493,-7328.038826,-1378.971896
6970.876211,-4071.132681,-7772.162391,-383.047749
6970.876536,-3997.112087,-7698.141797,-536.266849
6970.876861,-3923.091493,-7994.224174,0.000000
6970.877186,-4737.318029,-9030.512492,689.485948
6970.877511,-3923.091493,-9548.656652,689.485948
6970.877836,-2960.823768,-9252.574275,153.219100
6970.878161,-3404.947333,-10288.862594,1762.019645
6970.878486,-3775.050304,-10288.862594,2451.505594
6970.878811,-2664.741391,-9770.718434,1915.238745
6970.879136,-2738.761985,-8882.471304,1838.629195
6970.879461,-3775.050304,-8660.409521,1915.238745
6970.879786,-3701.029710,-7920.203579,1225.752797
6970.880111,-3404.947333,-6957.935855,-306.438199
6970.880436,-3923.091493,-7698.141797,-1302.362347
6970.880761,-3849.070898,-7550.100608,0.000000
6970.881086,-3330.926739,-6809.894666,0.000000
6970.881411,-4219.173869,-8882.471304,1225.752797
6970.881736,-4293.194464,-8882.471304,1532.190996
6970.882061,-3182.885551,-9474.636058,536.266849
6970.882386,-3034.844362,-9474.636058,766.095498
6970.882711,-3108.864956,-9992.780217,1762.019645
6970.883036,-3034.844362,-9400.615463,2145.067394
6970.883361,-2812.782580,-9992.780217,2145.067394
6970.883686,-3330.926739,-9770.718434,2451.505594
6970.884011,-2812.782580,-8808.450710,2068.457845
6970.884336,-3330.926739,-7846.182985,1149.143247
6970.884661,-4737.318029,-8660.409521,995.924147
6970.884986,-4737.318029,-8290.306550,1072.533697
6970.885311,-2812.782580,-7772.162391,-1225.752797
6970.885636,-3997.112087,-8142.265362,1455.581446
6970.885961,-5033.400406,-8068.244768,1762.019645
6970.886286,-4589.276840,-8660.409521,1378.971896
6970.886611,-4515.256246,-9178.553681,306.438199
6970.886936,-4293.194464,-10140.821405,1072.533697
6970.887261,-3256.906145,-9400.615463,1072.533697
6970.887586,-3182.885551,-8364.327145,1762.019645
6970.887911,-4219.173869,-9252.574275,3447.429741
6970.888236,-3997.112087,-9030.512492,2221.676944
6970.888560,-2812.782580,-7402.059420,536.266849
6970.888885,-3404.947333,-8068.244768,229.828649
6970.889210,-4071.132681,-8586.388927,919.314598
6970.889535,-3108.864956,-7994.224174,229.828649
6970.889860,-2960.823768,-8956.491898,76.609550
6970.890185,-4219.173869,-9104.533087,1225.752797
6970.890510,-4219.173869,-8586.388927,1532.190996
6970.890835,-3701.029710,-9104.533087,459.657299
6970.891160,-3701.029710,-9696.697840,383.047749
6970.891485,-3627.009116,-9326.594869,0.000000
6970.891810,-3182.885551,-8216.285956,0.000000
6970.892135,-4441.235652,-8216.285956,612.876398
6970.892460,-4515.256246,-8068.244768,612.876398
6970.892785,-2960.823768,-7254.018232,-612.876398
6970.893110,-2664.741391,-8586.388927,-1762.019645
6970.893435,-2664.741391,-8068.244768,-919.314598
6970.893760,-2886.803174,-7920.203579,-459.657299
6970.894085,-3478.967927,-9030.512492,612.876398
6970.894410,-3775.050304,-8956.491898,536.266849
6970.894735,-2812.782580,-9548.656652,-459.657299
6970.895060,-3627.009116,-9474.636058,-2451.505594
6970.895385,-4293.194464,-9918.759623,-1149.143247
6970.895710,-4367.215058,-10362.883188,-1225.752797
6970.896035,-3701.029710,-9030.512492,-1378.971896
6970.896360,-4737.318029,-9548.656652,-612.876398
6970.896685,-5921.647536,-8882.471304,-536.266849
6970.897010,-4737.318029,-8216.285956,-1838.629195
6970.897335,-4071.132681,-8438.347739,-2987.772442
6970.897660,-3627.009116,-8882.471304,-2374.896044
6970.897985,-3034.844362,-8142.265362,-2374.896044
6970.898310,-2960.823768,-8438.347739,-612.876398
6970.898635,-3997.112087,-9992.780217,612.876398
6970.898960,-3256.906145,-9474.636058,76.609550
6970.899285,-2146.597232,-9918.759623,-1302.362347
6970.899610,-2960.823768,-10214.842000,-1225.752797
6970.899935,-3775.050304,-9400.615463,306.438199
6970.900260,-3849.070898,-9178.553681,229.828649
6970.900585,-4219.173869,-9400.615463,459.657299
6970.900910,-5329.482782,-8364.327145,0.000000
6970.901235,-5033.400406,-8586.388927,-1532.190996
6970.901560,-5477.523971,-7772.162391,-2834.553343
6970.901885,-5403.503377,-9030.512492,-2221.676944
6970.902210,-4515.256246,-8438.347739,-2681.334243
6970.902535,-3701.029710,-8660.409521,-1225.752797
6970.902860,-4885.359217,-9178.553681,1455.581446
6970.903185,-3775.050304,-10140.821405,2145.067394
6970.903510,-2072.576638,-9474.636058,76.609550
6970.903835,-1776.494261,-9474.636058,995.924147
6970.904160,-2738.761985,-9548.656652,1608.800546
6970.904485,-3552.988522,-9030.512492,1762.019645
6970.904810,-3330.926739,-9252.574275,1991.848295
6970.905135,-3775.050304,-9030.512492,1072.533697
6970.905460,-3997.112087,-7994.224174,459.657299
6970.905785,-4145.153275,-7772.162391,76.609550
6970.906110,-4589.276840,-8586.388927,306.438199
6970.906435,-3330.926739,-8290.306550,-459.657299
6970.906760,-2664.741391,-8734.430116,-536.266849
6970.907085,-4219.173869,-8734.430116,459.657299
6970.907410,-4071.132681,-9104.533087,1838.629195
6970.907735,-3182.885551,-9326.594869,1072.533697
6970.908060,-2738.761985,-9622.677246,1072.533697
6970.908385,-2664.741391,-9474.636058,1915.238745
6970.908710,-2886.803174,-9178.553681,2681.334243
6970.909035,-3775.050304,-8438.347739,3600.648841
6970.909360,-4515.256246,-8512.368333,2604.724693
6970.909685,-3552.988522,-7772.162391,612.876398
6970.910010,-3404.947333,-7328.038826,-1302.362347
6970.910335,-4367.215058,-7920.203579,-153.219100
6970.910660,-3997.112087,-7772.162391,-842.705048
6970.910985,-2368.659014,-8586.388927,459.657299
6970.911310,-3627.009116,-8586.388927,1685.410096
6970.911634,-3404.947333,-9030.512492,2528.115143
6970.911959,-2590.720797,-8438.347739,1685.410096
6970.912284,-2516.700203,-9474.636058,1455.581446
6970.912609,-2812.782580,-9844.739029,1149.143247
6970.912934,-2368.659014,-8956.491898,1225.752797
6970.913259,-3330.926739,-8364.327145,1685.410096
6970.913584,-4811.338623,-8438.347739,2681.334243
6970.913909,-4441.235652,-7698.141797,1302.362347
6970.914234,-4293.194464,-7402.059420,-1072.533697
6970.914559,-5107.421000,-8734.430116,-766.095498
6970.914884,-5181.441594,-7994.224174,-919.314598
6970.915209,-3923.091493,-8142.265362,-1532.190996
6970.915534,-4737.318029,-9178.553681,76.609550
6970.915859,-4219.173869,-8882.471304,1149.143247
6970.916184,-3256.906145,-9104.533087,306.438199
6970.916509,-2960.823768,-9696.697840,153.219100
6970.916834,-2886.803174,-10066.800811,689.485948
6970.917159,-2812.782580,-9770.718434,383.047749
6970.917484,-2516.700203,-9030.512492,306.438199
6970.917809,-3330.926739,-9178.553681,1149.143247
6970.918134,-4219.173869,-8586.388927,842.705048
6970.918459,-3775.050304,-8142.265362,-1455.581446
6970.918784,-3997.112087,-7994.224174,-2221.676944
6970.919109,-4293.194464,-8808.450710,-1991.848295
6970.919434,-3923.091493,-8734.430116,-1915.238745
6970.919759,-4441.235652,-9400.615463,-306.438199
6970.920084,-4811.338623,-10881.027347,-459.657299
6970.920409,-3552.988522,-10436.903782,-766.095498
6970.920734,-3256.906145,-9918.759623,-1225.752797
6970.921059,-3627.009116,-10732.986159,0.000000
6970.921384,-3478.967927,-10288.862594,153.219100
6970.921709,-2960.823768,-9252.574275,-153.219100
6970.922034,-3627.009116,-9844.739029,306.438199
6970.922359,-4145.153275,-8290.306550,-229.828649
6970.922684,-3034.844362,-7254.018232,-995.924147
6970.923009,-3478.967927,-7254.018232,-1762.019645
6970.923334,-4145.153275,-8290.306550,-1072.533697
6970.923659,-3404.947333,-8290.306550,-1838.629195
6970.923984,-3182.885551,-8512.368333,-612.876398
6970.924309,-5107.421000,-9178.553681,842.705048
6970.924634,-4441.235652,-9400.615463,306.438199
6970.924959,-3923.091493,-9474.636058,-1225.752797
6970.925284,-3330.926739,-10140.821405,-995.924147
6970.925609,-3997.112087,-9770.718434,-689.485948
6970.925934,-3478.967927,-8808.450710,-229.828649
6970.926259,-4293.194464,-8808.450710,919.314598
6970.926584,-4219.173869,-9030.512492,842.705048
6970.926909,-2960.823768,-7476.080014,-459.657299
6970.927234,-3330.926739,-8068.244768,-612.876398
6970.927559,-4071.132681,-8438.347739,-306.438199
6970.927884,-2812.782580,-7550.100608,-229.828649
6970.928209,-2886.803174,-8364.327145,-536.266849
6970.928534,-4515.256246,-8734.430116,1072.533697
6970.928859,-3701.029710,-8586.388927,1072.533697
6970.929184,-2960.823768,-8660.409521,229.828649
6970.929509,-3478.967927,-10214.842000,1608.800546
6970.929834,-3775.050304,-9918.759623,536.266849
6970.930159,-3256.906145,-8586.388927,689.485948
6970.930484,-4441.235652,-8734.430116,1838.629195
6970.930809,-4737.318029,-8142.265362,1915.238745
6970.931134,-3552.988522,-8068.244768,153.219100
6970.931459,-4441.235652,-7698.141797,-612.876398
6970.931784,-5107.421000,-8734.430116,459.657299
6970.932109,-3404.947333,-8142.265362,0.000000
6970.932434,-3330.926739,-8660.409521,-306.438199
6970.932759,-4219.173869,-9474.636058,842.705048
6970.933084,-3108.864956,-9030.512492,1608.800546
6970.933409,-2368.659014,-8734.430116,1378.971896
6970.933734,-3182.885551,-9770.718434,2681.334243
6970.934059,-3627.009116,-9104.533087,2604.724693
6970.934384,-2442.679609,-7772.162391,1608.800546
6970.934708,-3552.988522,-9030.512492,1915.238745
6970.935033,-4589.276840,-8216.285956,2145.067394
6970.935358,-4441.235652,-8438.347739,612.876398
6970.935683,-3775.050304,-7698.141797,-612.876398
6970.936008,-3849.070898,-9474.636058,0.000000
6970.936333,-3478.967927,-7846.182985,0.000000
6970.936658,-3478.967927,-7772.162391,-306.438199
6970.936983,-4441.235652,-9326.594869,1072.533697
6970.937308,-3034.844362,-9400.615463,612.876398
6970.937633,-2368.659014,-8364.327145,0.000000
6970.937958,-3256.906145,-9474.636058,919.314598
6970.938283,-3775.050304,-9992.780217,1685.410096
6970.938608,-3108.864956,-8882.471304,1149.143247
6970.938933,-3404.947333,-8438.347739,919.314598
6970.939258,-4515.256246,-8660.409521,1072.533697
6970.939583,-4071.132681,-7772.162391,612.876398
6970.939908,-4219.173869,-8290.306550,-612.876398
6970.940233,-4441.235652,-9030.512492,-459.657299
6970.940558,-3552.988522,-7994.224174,-766.095498
6970.940883,-3256.906145,-8512.368333,-842.705048
6970.941208,-4219.173869,-8882.471304,689.485948
6970.941533,-3701.029710,-9992.780217,153.219100
6970.941858,-3108.864956,-8586.388927,76.609550
6970.942183,-3256.906145,-9252.574275,153.219100
6970.942508,-3627.009116,-9400.615463,842.705048
6970.942833,-3108.864956,-9030.512492,383.047749
6970.943158,-3627.009116,-9400.615463,842.705048
6970.943483,-4737.318029,-8660.409521,766.095498
6970.943808,-4219.173869,-7402.059420,0.000000
6970.944133,-4071.132681,-8216.285956,-1991.848295
6970.944458,-4811.338623,-9400.615463,-1608.800546
6970.944783,-3997.112087,-9030.512492,-1608.800546
6970.945108,-3256.906145,-8216.285956,-995.924147
6970.945433,-4145.153275,-9548.656652,383.047749
6970.945758,-3849.070898,-9400.615463,766.095498
6970.946083,-2960.823768,-9326.594869,76.609550
6970.946408,-2516.700203,-10214.842000,-536.266849
6970.946733,-2220.617826,-9474.636058,0.000000
6970.947058,-2812.782580,-9252.574275,459.657299
6970.947383,-3923.091493,-8882.471304,1455.581446
6970.947708,-4663.297435,-9548.656652,1532.190996
6970.948033,-4071.132681,-8660.409521,153.219100
6970.948358,-3701.029710,-7698.141797,-1608.800546
6970.948683,-3849.070898,-8290.306550,-1915.238745
6970.949008,-5255.462188,-8364.327145,-1378.971896
6970.949333,-3701.029710,-8142.265362,-1455.581446
6970.949658,-3404.947333,-8734.430116,-995.924147
6970.949983,-4293.194464,-8882.471304,76.609550
6970.950308,-3627.009116,-8734.430116,0.000000
6970.950633,-2960.823768,-9104.533087,-536.266849
6970.950958,-3701.029710,-9770.718434,459.657299
6970.951283,-3182.885551,-9178.553681,383.047749
6970.951608,-2886.803174,-7772.162391,536.266849
6970.951933,-4737.318029,-8808.450710,1532.190996
6970.952258,-4663.297435,-8660.409521,459.657299
6970.952583,-3478.967927,-8216.285956,-1532.190996
6970.952908,-3923.091493,-7846.182985,-2068.457845
6970.953233,-4441.235652,-9252.574275,-1455.581446
6970.953558,-3108.864956,-7476.080014,-1378.971896
6970.953883,-3256.906145,-9326.594869,-536.266849
6970.954208,-3997.112087,-9474.636058,153.219100
6970.954533,-2960.823768,-8586.388927,0.000000
6970.954858,-2516.700203,-9178.553681,-612.876398
6970.955183,-3108.864956,-9844.739029,0.000000
6970.955508,-3256.906145,-9178.553681,306.438199
6970.955833,-3182.885551,-8216.285956,0.000000
6970.956158,-4737.318029,-8882.471304,919.314598
6970.956483,-5181.441594,-8438.347739,689.485948
6970.956808,-4367.215058,-7772.162391,-689.485948
6970.957133,-4663.297435,-8660.409521,-1685.410096
6970.957458,-3997.112087,-8882.471304,-1072.533697
6970.957782,-3627.009116,-7846.182985,-1302.362347
6970.958107,-3701.029710,-9696.697840,-459.657299
6970.958432,-4367.215058,-9474.636058,612.876398
6970.958757,-2664.741391,-9696.697840,0.000000
6970.959082,-2220.617826,-9178.553681,-306.438199
6970.959407,-3034.844362,-9918.759623,1072.533697
6970.959732,-3108.864956,-10584.944971,995.924147
6970.960057,-2738.761985,-8512.368333,1378.971896
6970.960382,-3627.009116,-9104.533087,1072.533697
6970.960707,-4589.276840,-8660.409521,995.924147
6970.961032,-4071.132681,-7179.997637,0.000000
6970.961357,-5033.400406,-8438.347739,-995.924147
6970.961682,-5107.421000,-9474.636058,-1149.143247
6970.962007,-3849.070898,-8290.306550,-1608.800546
6970.962332,-4293.194464,-8216.285956,-306.438199
6970.962657,-5255.462188,-9178.553681,1608.800546
6970.962982,-3923.091493,-9918.759623,1302.362347
6970.963307,-2960.823768,-9474.636058,-459.657299
6970.963632,-3034.844362,-9474.636058,383.047749
6970.963957,-3034.844362,-9326.594869,1455.581446
6970.964282,-2738.761985,-8586.388927,1455.581446
6970.964607,-2590.720797,-8882.471304,1991.848295
6970.964932,-3256.906145,-9844.739029,1072.533697
6970.965257,-3034.844362,-6587.832884,612.876398
6970.965582,-3701.029710,-7550.100608,76.609550
6970.965907,-4515.256246,-8734.430116,459.657299
6970.966232,-3478.967927,-8290.306550,-459.657299
6970.966557,-3404.947333,-8586.388927,0.000000
6970.966882,-5107.421000,-8586.388927,1378.971896
6970.967207,-4441.235652,-8438.347739,1455.581446
6970.967532,-3552.988522,-9030.512492,229.828649
6970.967857,-3997.112087,-9622.677246,0.000000
6970.968182,-3775.050304,-9548.656652,153.219100
6970.968507,-3627.009116,-8142.265362,919.314598
6970.968832,-3627.009116,-8956.491898,1608.800546
6970.969157,-3552.988522,-9252.574275,2145.067394
6970.969482,-2590.720797,-7846.182985,536.266849
6970.969807,-2368.659014,-7402.059420,536.266849
6970.970132,-3775.050304,-8364.327145,919.314598
6970.970457,-3330.926739,-8660.409521,459.657299
6970.970782,-2442.679609,-8734.430116,306.438199
6970.971107,-3478.967927,-9696.697840,1302.362347
6970.971432,-4219.173869,-8882.471304,1685.410096
6970.971757,-3775.050304,-8956.491898,995.924147
6970.972082,-3108.864956,-9400.615463,-383.047749
6970.972407,-4071.132681,-10066.800811,766.095498
6970.972732,-3849.070898,-8660.409521,153.219100
6970.973057,-4145.153275,-8364.327145,1225.752797
6970.973382,-5033.400406,-8438.347739,1762.019645
6970.973707,-3775.050304,-8438.347739,-229.828649
6970.974032,-3849.070898,-7105.977043,-1991.848295
6970.974357,-4441.235652,-8068.244768,-995.924147
6970.974682,-3404.947333,-8734.430116,-919.314598
6970.975007,-3182.885551,-8364.327145,-306.438199
6970.975332,-4293.194464,-9400.615463,995.924147
6970.975657,-3775.050304,-9844.739029,1225.752797
6970.975982,-2368.659014,-9474.636058,842.705048
6970.976307,-3478.967927,-9252.574275,612.876398
6970.976632,-3627.009116,-10140.821405,1149.143247
6970.976957,-3552.988522,-9326.594869,459.657299
6970.977282,-3923.091493,-8512.368333,153.219100
6970.977607,-4885.359217,-9252.574275,0.000000
6970.977932,-4441.235652,-8068.244768,-1072.533697
6970.978257,-4515.256246,-7550.100608,-1915.238745
6970.978582,-4515.256246,-9178.553681,-1608.800546
6970.978907,-3552.988522,-8364.327145,-766.095498
6970.979232,-3478.967927,-8364.327145,-1762.019645
6970.979557,-4367.215058,-9400.615463,689.485948
6970.979882,-4293.194464,-9770.718434,1149.143247
6970.980207,-2960.823768,-9400.615463,-306.438199
6970.980532,-3034.844362,-9992.780217,-153.219100
6970.980856,-3627.009116,-10436.903782,383.047749
6970.981181,-2960.823768,-9474.636058,766.095498
6970.981506,-3330.926739,-9252.574275,1685.410096
6970.981831,-3849.070898,-9548.656652,1378.971896
6970.982156,-3701.029710,-8808.450710,766.095498
6970.982481,-3034.844362,-7254.018232,-229.828649
6970.982806,-3627.009116,-8438.347739,0.000000
6970.983131,-3997.112087,-7920.203579,0.000000
6970.983456,-2738.761985,-7698.141797,0.000000
6970.983781,-3849.070898,-8808.450710,459.657299
6970.984106,-4959.379811,-9474.636058,1762.019645
6970.984431,-4293.194464,-9326.594869,919.314598
6970.984756,-3478.967927,-9622.677246,306.438199
6970.985081,-3627.009116,-10510.924376,842.705048
6970.985406,-3256.906145,-9400.615463,2221.676944
6970.985730,-3404.947333,-8660.409521,2604.724693
6970.986055,-3997.112087,-9770.718434,3064.381992
6970.986380,-3108.864956,-8438.347739,842.705048
6970.986705,-3108.864956,-7105.977043,229.828649
6970.987030,-4145.153275,-8216.285956,383.047749
6970.987355,-4441.235652,-8216.285956,1302.362347
6970.987680,-3108.864956,-8142.265362,689.485948
6970.988005,-3552.988522,-8586.388927,1302.362347
6970.988330,-4219.173869,-9178.553681,2987.772442
6970.988655,-3478.967927,-9030.512492,2145.067394
6970.988979,-3182.885551,-9030.512492,1608.800546
6970.989304,-3478.967927,-10066.800811,2068.457845
6970.989629,-2960.823768,-9252.574275,1838.629195
6970.989954,-3108.864956,-8660.409521,1991.848295
6970.990279,-4515.256246,-8660.409521,3600.648841
6970.990604,-4515.256246,-8512.368333,2528.115143
6970.990929,-3849.070898,-6809.894666,1455.581446
6970.991254,-3775.050304,-8142.265362,842.705048
6970.991579,-3775.050304,-8216.285956,842.705048
6970.991904,-2886.803174,-7772.162391,536.266849
6970.992229,-3552.988522,-8438.347739,1532.190996
6970.992553,-4367.215058,-9104.533087,2374.896044
6970.992878,-3330.926739,-8512.368333,2068.457845
6970.993203,-2738.761985,-8290.306550,1149.143247
6970.993528,-3627.009116,-9918.759623,1915.238745
6970.993853,-3849.070898,-9844.739029,1991.848295
6970.994178,-3182.885551,-7994.224174,1455.581446
6970.994503,-3849.070898,-8660.409521,2374.896044
6970.994828,-5255.462188,-8142.265362,2604.724693
6970.995153,-3552.988522,-7328.038826,1149.143247
6970.995478,-3108.864956,-8364.327145,-536.266849
6970.995803,-3775.050304,-9252.574275,-229.828649
6970.996127,-3034.844362,-8142.265362,0.000000
6970.996452,-2960.823768,-8956.491898,1302.362347
6970.996777,-4145.153275,-10140.821405,2451.505594
6970.997102,-2886.803174,-9548.656652,1991.848295
6970.997427,-2072.576638,-9474.636058,1302.362347
6970.997752,-2442.679609,-9844.739029,2068.457845
6970.998077,-3552.988522,-9326.594869,2834.553343
6970.998402,-2960.823768,-8512.368333,1685.410096
6970.998727,-3775.050304,-8882.471304,1455.581446
6970.999052,-5329.482782,-8142.265362,1455.581446
6970.999377,-5403.503377,-7402.059420,229.828649
6970.999701,-4811.338623,-8068.244768,-1685.410096
6971.000026,-5329.482782,-8734.430116,-1149.143247
6971.000351,-3701.029710,-8216.285956,-1378.971896
6971.000676,-3701.029710,-7994.224174,-536.266849
6971.001001,-4367.215058,-9992.780217,2068.457845
6971.001326,-3478.967927,-10140.821405,2068.457845
6971.001651,-2294.638420,-9770.718434,689.485948
6971.001976,-2294.638420,-10510.924376,1225.752797
6971.002301,-2368.659014,-9992.780217,1455.581446
6971.002626,-2960.823768,-9326.594869,2298.286494
6971.002950,-3923.091493,-9104.533087,1991.848295
6971.003275,-4293.194464,-9104.533087,766.095498
6971.003600,-4219.173869,-7624.121203,-766.095498
6971.003925,-4663.297435,-7328.038826,-1762.019645
6971.004250,-5181.441594,-8734.430116,-995.924147
6971.004575,-4589.276840,-7402.059420,-1532.190996
6971.004900,-3182.885551,-7994.224174,-1608.800546
6971.005225,-4145.153275,-9770.718434,229.828649
6971.005550,-3849.070898,-9326.594869,1149.143247
6971.005875,-2368.659014,-9844.739029,612.876398
6971.006200,-2146.597232,-10658.965565,995.924147
6971.006524,-2072.576638,-10214.842000,2068.457845
6971.006849,-2590.720797,-8956.491898,2528.115143
6971.007174,-3108.864956,-8438.347739,3524.039291
6971.007499,-3997.112087,-8660.409521,1532.190996
6971.007824,-3923.091493,-7846.182985,-995.924147
6971.008149,-4293.194464,-7254.018232,-2145.067394
6971.008474,-5033.400406,-7846.182985,-995.924147
6971.008799,-4293.194464,-7476.080014,-1302.362347
6971.009124,-4071.132681,-7772.162391,-689.485948
6971.009449,-4737.318029,-8364.327145,689.485948
6971.009774,-4071.132681,-9400.615463,995.924147
6971.010098,-3108.864956,-8734.430116,612.876398
6971.010423,-2960.823768,-9918.759623,689.485948
6971.010748,-3256.906145,-10881.027347,1532.190996
6971.011073,-2738.761985,-9548.656652,1762.019645
6971.011398,-3034.844362,-8438.347739,1915.238745
6971.011723,-4293.194464,-8808.450710,2681.334243
6971.012048,-3701.029710,-8956.491898,1072.533697
6971.012373,-2886.803174,-8290.306550,-612.876398
6971.012698,-3701.029710,-8068.244768,-612.876398
6971.013023,-4071.132681,-7179.997637,536.266849
6971.013348,-3701.029710,-7550.100608,536.266849
6971.013672,-4219.173869,-9178.553681,1149.143247
6971.013997,-4663.297435,-9992.780217,1149.143247
6971.014322,-3552.988522,-9326.594869,689.485948
6971.014647,-4219.173869,-9622.677246,1915.238745
6971.014972,-4441.235652,-10510.924376,2298.286494
6971.015297,-3330.926739,-9622.677246,2145.067394
6971.015622,-3034.844362,-9474.636058,1225.752797
6971.015947,-4219.173869,-9326.594869,1762.019645
6971.016272,-3701.029710,-6957.935855,1225.752797
6971.016597,-2960.823768,-7550.100608,306.438199
6971.016922,-3256.906145,-7772.162391,0.000000
6971.017246,-3182.885551,-8956.491898,0.000000
6971.017571,-2812.782580,-8216.285956,995.924147
6971.017896,-3552.988522,-9030.512492,1915.238745
6971.018221,-4219.173869,-10658.965565,2987.772442
6971.018546,-2664.741391,-9696.697840,1838.629195
6971.018871,-3034.844362,-10436.903782,1762.019645
6971.019196,-4367.215058,-10214.842000,2987.772442
6971.019521,-4219.173869,-9030.512492,2451.505594
6971.019846,-4071.132681,-8512.368333,919.314598
6971.020171,-4885.359217,-9178.553681,919.314598
6971.020495,-4589.276840,-7254.018232,842.705048
6971.020820,-3923.091493,-5995.668130,0.000000
6971.021145,-4219.173869,-7254.018232,76.609550
6971.021470,-3330.926739,-7476.080014,306.438199
6971.021795,-2146.597232,-7179.997637,0.000000
6971.022120,-3108.864956,-8068.244768,1225.752797
6971.022445,-3701.029710,-8438.347739,3370.820191
6971.022770,-3404.947333,-9030.512492,2451.505594
6971.023095,-2368.659014,-10066.800811,0.000000
6971.023420,-4071.132681,-10658.965565,1225.752797
6971.023745,-4145.153275,-10214.842000,1532.190996
6971.024069,-3330.926739,-9178.553681,995.924147
6971.024394,-4589.276840,-9770.718434,1455.581446
6971.024719,-4589.276840,-8364.327145,1455.581446
6971.025044,-3775.050304,-7476.080014,-459.657299
6971.025369,-4515.256246,-7328.038826,-459.657299
6971.025694,-4515.256246,-8290.306550,0.000000
6971.026019,-3034.844362,-7624.121203,-1455.581446
6971.026344,-3330.926739,-8068.244768,-689.485948
6971.026669,-4293.194464,-8660.409521,689.485948
6971.026994,-3108.864956,-9030.512492,1302.362347
6971.027319,-3256.906145,-9474.636058,229.828649
6971.027643,-3330.926739,-10510.924376,1072.533697
6971.027968,-3330.926739,-11251.130318,1302.362347
6971.028293,-3330.926739,-8882.471304,919.314598
6971.028618,-4145.153275,-9696.697840,1455.581446
6971.028943,-4811.338623,-8882.471304,1455.581446
6971.029268,-3552.988522,-8364.327145,-153.219100
6971.029593,-3627.009116,-8068.244768,-919.314598
6971.029918,-4885.359217,-7920.203579,0.000000
6971.030243,-3923.091493,-7846.182985,-995.924147
6971.030568,-3849.070898,-8956.491898,-766.095498
6971.030893,-4737.318029,-9770.718434,383.047749
6971.031217,-3849.070898,-9474.636058,919.314598
6971.031542,-3256.906145,-9178.553681,153.219100
6971.031867,-3330.926739,-9992.780217,459.657299
6971.032192,-2960.823768,-10732.986159,1455.581446
6971.032517,-2738.761985,-9474.636058,459.657299
6971.032842,-3701.029710,-9252.574275,1378.971896
6971.033167,-4737.318029,-9326.594869,1685.410096
6971.033492,-3701.029710,-8734.430116,383.047749
6971.033817,-3627.009116,-8660.409521,229.828649
6971.034142,-3627.009116,-9252.574275,0.000000
6971.034466,-3256.906145,-7328.038826,842.705048
6971.034791,-4145.153275,-7624.121203,1149.143247
6971.035116,-4589.276840,-9400.615463,1608.800546
6971.035441,-3923.091493,-9474.636058,842.705048
6971.035766,-3404.947333,-8290.306550,0.000000
6971.036091,-3997.112087,-9178.553681,612.876398
6971.036416,-4293.194464,-9030.512492,2145.067394
6971.036741,-3627.009116,-8068.244768,1072.533697
6971.037066,-3404.947333,-9474.636058,2374.896044
6971.037391,-4737.318029,-9104.533087,2987.772442
6971.037716,-4293.194464,-8068.244768,2068.457845
6971.038040,-3256.906145,-7920.203579,459.657299
6971.038365,-3849.070898,-8660.409521,459.657299
6971.038690,-3256.906145,-8734.430116,383.047749
6971.039015,-2738.761985,-7698.141797,76.609550
6971.039340,-3849.070898,-9474.636058,3217.601092
6971.039665,-3627.009116,-9548.656652,3064.381992
6971.039990,-1628.453072,-9030.512492,1378.971896
6971.040315,-2960.823768,-9400.615463,1915.238745
6971.040640,-3923.091493,-9030.512492,2757.943793
6971.040965,-3034.844362,-8290.306550,2374.896044
6971.041290,-3552.988522,-7105.977043,1991.848295
6971.041614,-5033.400406,-8586.388927,2451.505594
6971.041939,-4145.153275,-7105.977043,995.924147
6971.042264,-3182.885551,-7031.956449,0.000000
6971.042589,-4885.359217,-8956.491898,766.095498
6971.042914,-3923.091493,-8364.327145,1149.143247
6971.043239,-2886.803174,-8068.244768,689.485948
6971.043564,-3330.926739,-9474.636058,2221.676944
6971.043889,-3997.112087,-9622.677246,3907.087040
6971.044214,-2442.679609,-9104.533087,2604.724693
6971.044539,-2368.659014,-9918.759623,1915.238745
6971.044864,-3108.864956,-9474.636058,1991.848295
6971.045188,-3849.070898,-8512.368333,2145.067394
6971.045513,-3552.988522,-7920.203579,1149.143247
6971.045838,-3997.112087,-8882.471304,1608.800546
6971.046163,-3775.050304,-7402.059420,536.266849
6971.046488,-3330.926739,-7105.977043,-766.095498
6971.046813,-3775.050304,-7846.182985,0.000000
6971.047138,-3701.029710,-8660.409521,76.609550
6971.047463,-2960.823768,-8290.306550,76.609550
6971.047788,-3330.926739,-9548.656652,1149.143247
6971.048113,-3552.988522,-9548.656652,1608.800546
6971.048438,-3182.885551,-9474.636058,842.705048
6971.048762,-3330.926739,-10436.903782,1225.752797
6971.049087,-3627.009116,-10732.986159,1455.581446
6971.049412,-3849.070898,-9696.697840,919.314598
6971.049737,-4219.173869,-8660.409521,1302.362347
6971.050062,-5699.585753,-9252.574275,1762.019645
6971.050387,-4885.359217,-7846.182985,919.314598
6971.050712,-4293.194464,-7698.141797,-1072.533697
6971.051037,-4959.379811,-7550.100608,-1762.019645
6971.051362,-4293.194464,-8734.430116,-1608.800546
6971.051687,-3478.967927,-8290.306550,-1149.143247
6971.052011,-4071.132681,-9548.656652,459.657299
6971.052336,-3923.091493,-10214.842000,1608.800546
6971.052661,-1554.432478,-9770.718434,1149.143247
6971.052986,-1776.494261,-10362.883188,1149.143247
6971.053311,-3701.029710,-10881.027347,2145.067394
6971.053636,-2960.823768,-9622.677246,1838.629195
6971.053961,-2368.659014,-9030.512492,919.314598
6971.054286,-4293.194464,-8438.347739,1838.629195
6971.054611,-4885.359217,-8068.244768,2374.896044
6971.054936,-4367.215058,-7920.203579,0.000000
6971.055261,-4515.256246,-7920.203579,-1685.410096
6971.055585,-4663.297435,-7920.203579,-1991.848295
