#time,accel_x,accel_y,accel_z
7330.166919,-3775.050304,-8956.491898,153.219100
7330.167235,-3627.009116,-8956.491898,306.438199
7330.167551,-3256.906145,-8142.265362,1149.143247
7330.167868,-3330.926739,-8364.327145,995.924147
7330.168184,-3256.906145,-8734.430116,459.657299
7330.168501,-3108.864956,-8956.491898,766.095498
7330.168817,-3701.029710,-9030.512492,76.609550
7330.169134,-3627.009116,-8734.430116,229.828649
7330.169450,-3849.070898,-8882.471304,0.000000
7330.169767,-3849.070898,-8808.450710,0.000000
7330.170083,-3552.988522,-8808.450710,0.000000
7330.170400,-3997.112087,-8808.450710,459.657299
7330.170716,-3478.967927,-8734.430116,229.828649
7330.171033,-3627.009116,-8808.450710,76.609550
7330.171349,-3330.926739,-9104.533087,306.438199
7330.171665,-3478.967927,-8808.450710,612.876398
7330.171982,-3404.947333,-8660.409521,459.657299
7330.172298,-3701.029710,-8438.347739,1072.533697
7330.172615,-3182.885551,-8660.409521,766.095498
7330.172931,-3701.029710,-7846.182985,76.609550
7330.173248,-3997.112087,-8586.388927,612.876398
7330.173564,-3997.112087,-8882.471304,-306.438199
7330.173881,-4071.132681,-8808.450710,-153.219100
7330.174197,-3849.070898,-8808.450710,-153.219100
7330.174514,-3997.112087,-8586.388927,229.828649
7330.174830,-3849.070898,-8586.388927,536.266849
7330.175146,-3404.947333,-9030.512492,919.314598
7330.175463,-3923.091493,-8438.347739,842.705048
7330.175779,-3627.009116,-8586.388927,383.047749
7330.176096,-3478.967927,-8956.491898,459.657299
7330.176412,-3182.885551,-8808.450710,536.266849
7330.176729,-3627.009116,-8660.409521,383.047749
7330.177045,-3849.070898,-8808.450710,689.485948
7330.177362,-3775.050304,-8364.327145,-229.828649
7330.177678,-3552.988522,-8808.450710,383.047749
7330.177995,-3923.091493,-8734.430116,-229.828649
7330.178311,-3923.091493,-8660.409521,0.000000
7330.178627,-3923.091493,-8882.471304,76.609550
7330.178944,-3923.091493,-8808.450710,383.047749
7330.179260,-3404.947333,-8956.491898,229.828649
7330.179577,-3627.009116,-8290.306550,229.828649
7330.179893,-3627.009116,-8364.327145,306.438199
7330.180210,-2960.823768,-8586.388927,689.485948
7330.180526,-3182.885551,-9030.512492,383.047749
7330.180843,-3701.029710,-8956.491898,612.876398
7330.181159,-3627.009116,-8882.471304,229.828649
7330.181476,-3627.009116,-9104.533087,-153.219100
7330.181792,-3997.112087,-8734.430116,-306.438199
7330.182108,-3775.050304,-8808.450710,0.000000
7330.182425,-3997.112087,-8290.306550,0.000000
7330.182741,-3478.967927,-9030.512492,842.705048
7330.183058,-3552.988522,-8808.450710,459.657299
7330.183374,-3330.926739,-8808.450710,306.438199
7330.183691,-3552.988522,-8734.430116,306.438199
7330.184007,-3552.988522,-8438.347739,459.657299
7330.184324,-3552.988522,-8660.409521,153.219100
7330.184640,-3552.988522,-8586.388927,689.485948
7330.184957,-3478.967927,-8956.491898,306.438199
7330.185273,-3552.988522,-8586.388927,306.438199
7330.185589,-3923.091493,-8808.450710,0.000000
7330.185906,-3923.091493,-8734.430116,0.000000
7330.186222,-3701.029710,-8956.491898,0.000000
7330.186539,-3701.029710,-8586.388927,536.266849
7330.186855,-3404.947333,-8660.409521,383.047749
7330.187172,-3256.906145,-8808.450710,1455.581446
7330.187488,-3552.988522,-9178.553681,689.485948
7330.187805,-3404.947333,-8882.471304,306.438199
7330.188121,-3478.967927,-8660.409521,153.219100
7330.188438,-3627.009116,-8660.409521,383.047749
7330.188754,-3256.906145,-8808.450710,229.828649
7330.189070,-3478.967927,-8364.327145,766.095498
7330.189387,-3923.091493,-8586.388927,612.876398
7330.189703,-3552.988522,-8808.450710,459.657299
7330.190020,-4293.194464,-8660.409521,0.000000
7330.190336,-3701.029710,-9252.574275,0.000000
7330.190653,-3478.967927,-9326.594869,-153.219100
7330.190969,-3701.029710,-8808.450710,153.219100
7330.191286,-3627.009116,-9030.512492,153.219100
7330.191602,-3478.967927,-8734.430116,153.219100
7330.191919,-3478.967927,-8438.347739,229.828649
7330.192235,-3256.906145,-8808.450710,153.219100
7330.192551,-3775.050304,-8364.327145,766.095498
7330.192868,-3997.112087,-9104.533087,383.047749
7330.193184,-4293.194464,-9326.594869,842.705048
7330.193501,-4293.194464,-9474.636058,383.047749
7330.193817,-3997.112087,-8438.347739,306.438199
7330.194134,-3775.050304,-8808.450710,842.705048
7330.194450,-3701.029710,-8438.347739,153.219100
7330.194767,-3552.988522,-8586.388927,0.000000
7330.195083,-3330.926739,-8216.285956,-306.438199
7330.195400,-3256.906145,-7920.203579,153.219100
7330.195716,-3404.947333,-8216.285956,536.266849
7330.196033,-3849.070898,-8956.491898,1149.143247
7330.196349,-3478.967927,-9474.636058,1378.971896
7330.196665,-3997.112087,-9104.533087,1378.971896
7330.196982,-3701.029710,-8882.471304,536.266849
7330.197298,-3478.967927,-8882.471304,689.485948
7330.197615,-3330.926739,-9252.574275,76.609550
7330.197931,-3034.844362,-9474.636058,612.876398
7330.198248,-3775.050304,-9326.594869,1762.019645
7330.198564,-3997.112087,-8808.450710,1762.019645
7330.198881,-3182.885551,-8290.306550,1302.362347
7330.199197,-3923.091493,-8068.244768,459.657299
7330.199514,-4219.173869,-8438.347739,0.000000
7330.199830,-4663.297435,-8882.471304,-153.219100
7330.200146,-3701.029710,-8882.471304,-229.828649
7330.200463,-3034.844362,-8142.265362,689.485948
7330.200779,-3330.926739,-7402.059420,1838.629195
7330.201096,-3552.988522,-8364.327145,2604.724693
7330.201412,-3552.988522,-9326.594869,1762.019645
7330.201729,-3034.844362,-8956.491898,766.095498
7330.202045,-2738.761985,-8660.409521,459.657299
7330.202362,-3701.029710,-8068.244768,1532.190996
7330.202678,-4367.215058,-9030.512492,1838.629195
7330.202995,-3923.091493,-9622.677246,1149.143247
7330.203311,-3404.947333,-9622.677246,1149.143247
7330.203627,-4071.132681,-8438.347739,459.657299
7330.203944,-4145.153275,-8438.347739,153.219100
7330.204260,-3923.091493,-8808.450710,612.876398
7330.204577,-2738.761985,-8956.491898,0.000000
7330.204893,-2516.700203,-8438.347739,536.266849
7330.205210,-2960.823768,-8068.244768,1608.800546
7330.205526,-3182.885551,-8216.285956,2298.286494
7330.205843,-3849.070898,-8290.306550,2604.724693
7330.206159,-3478.967927,-9178.553681,1455.581446
7330.206476,-4219.173869,-8808.450710,153.219100
7330.206792,-4219.173869,-8882.471304,229.828649
7330.207108,-3997.112087,-9104.533087,612.876398
7330.207425,-3923.091493,-8956.491898,995.924147
7330.207741,-3775.050304,-8586.388927,1685.410096
7330.208058,-3478.967927,-8586.388927,1915.238745
7330.208374,-3404.947333,-8660.409521,1302.362347
7330.208691,-3923.091493,-8808.450710,383.047749
7330.209007,-3404.947333,-8586.388927,306.438199
7330.209324,-3627.009116,-7994.224174,459.657299
7330.209640,-3330.926739,-8142.265362,995.924147
7330.209957,-3627.009116,-8586.388927,1685.410096
7330.210273,-3701.029710,-8364.327145,1685.410096
7330.210589,-3775.050304,-8364.327145,1225.752797
7330.210906,-3404.947333,-8142.265362,459.657299
7330.211222,-3923.091493,-8216.285956,0.000000
7330.211539,-3849.070898,-9252.574275,153.219100
7330.211855,-4367.215058,-9030.512492,383.047749
7330.212172,-4145.153275,-9178.553681,459.657299
7330.212488,-3849.070898,-8956.491898,306.438199
7330.212805,-3108.864956,-9474.636058,383.047749
7330.213121,-3108.864956,-9104.533087,306.438199
7330.213438,-2664.741391,-7994.224174,306.438199
7330.213754,-2368.659014,-8808.450710,842.705048
7330.214070,-2960.823768,-8364.327145,536.266849
7330.214387,-2442.679609,-9178.553681,0.000000
7330.214703,-3701.029710,-9030.512492,229.828649
7330.215020,-3701.029710,-8586.388927,306.438199
7330.215336,-4219.173869,-8808.450710,229.828649
7330.215653,-4293.194464,-9474.636058,76.609550
7330.215969,-3552.988522,-9770.718434,0.000000
7330.216286,-3997.112087,-9326.594869,153.219100
7330.216602,-3182.885551,-9474.636058,76.609550
7330.216919,-3478.967927,-9104.533087,919.314598
7330.217235,-3256.906145,-8734.430116,995.924147
7330.217551,-3034.844362,-9030.512492,1072.533697
7330.217868,-3627.009116,-8512.368333,1225.752797
7330.218184,-3330.926739,-9326.594869,0.000000
7330.218501,-4145.153275,-8882.471304,-1149.143247
7330.218817,-3775.050304,-8808.450710,-536.266849
7330.219134,-4737.318029,-8438.347739,153.219100
7330.219450,-4367.215058,-8734.430116,0.000000
7330.219767,-3775.050304,-9400.615463,0.000000
7330.220083,-3552.988522,-9400.615463,459.657299
7330.220400,-3849.070898,-9474.636058,536.266849
7330.220716,-3701.029710,-8956.491898,919.314598
7330.221033,-3478.967927,-9178.553681,2068.457845
7330.221349,-3182.885551,-9474.636058,1455.581446
7330.221665,-3701.029710,-9104.533087,1302.362347
7330.221982,-3775.050304,-9104.533087,842.705048
7330.222298,-3627.009116,-8808.450710,689.485948
7330.222615,-3627.009116,-8290.306550,-306.438199
7330.222931,-3404.947333,-8438.347739,-306.438199
7330.223248,-4293.194464,-7402.059420,229.828649
7330.223564,-3552.988522,-8734.430116,0.000000
7330.223881,-3330.926739,-8438.347739,153.219100
7330.224197,-3256.906145,-8882.471304,689.485948
7330.224514,-3552.988522,-8438.347739,1225.752797
7330.224830,-3108.864956,-9400.615463,1608.800546
7330.225146,-3701.029710,-9548.656652,1455.581446
7330.225463,-2886.803174,-9622.677246,1149.143247
7330.225779,-2886.803174,-9474.636058,1532.190996
7330.226096,-3256.906145,-8882.471304,1302.362347
7330.226412,-3923.091493,-8586.388927,1072.533697
7330.226729,-3849.070898,-8364.327145,919.314598
7330.227045,-3997.112087,-8438.347739,76.609550
7330.227362,-3923.091493,-8216.285956,0.000000
7330.227678,-3923.091493,-7624.121203,0.000000
7330.227995,-4071.132681,-8068.244768,-612.876398
7330.228311,-3701.029710,-7994.224174,0.000000
7330.228627,-3330.926739,-8068.244768,459.657299
7330.228944,-3034.844362,-8068.244768,766.095498
7330.229260,-3330.926739,-8364.327145,995.924147
7330.229577,-2738.761985,-8438.347739,766.095498
7330.229893,-2812.782580,-8512.368333,612.876398
7330.230210,-2886.803174,-8734.430116,153.219100
7330.230526,-3256.906145,-8882.471304,-153.219100
7330.230843,-2960.823768,-8956.491898,153.219100
7330.231159,-3775.050304,-8586.388927,153.219100
7330.231476,-3923.091493,-8956.491898,-1072.533697
7330.231792,-3923.091493,-8882.471304,-1149.143247
7330.232108,-4145.153275,-8660.409521,-1302.362347
7330.232425,-3775.050304,-9104.533087,-1302.362347
7330.232741,-3404.947333,-8734.430116,-1378.971896
7330.233058,-2590.720797,-8882.471304,-383.047749
7330.233374,-3108.864956,-8438.347739,-229.828649
7330.233691,-2886.803174,-9252.574275,-229.828649
7330.234007,-2738.761985,-9400.615463,-153.219100
7330.234324,-3182.885551,-9104.533087,0.000000
7330.234640,-3256.906145,-8956.491898,0.000000
7330.234957,-3701.029710,-9030.512492,-766.095498
7330.235273,-3849.070898,-9400.615463,-1455.581446
7330.235589,-3997.112087,-9326.594869,-1378.971896
7330.235906,-4367.215058,-9030.512492,-1915.238745
7330.236222,-4737.318029,-8808.450710,-1608.800546
7330.236539,-4515.256246,-8808.450710,-2145.067394
7330.236855,-4071.132681,-8956.491898,-1762.019645
7330.237172,-4293.194464,-9252.574275,-1302.362347
7330.237488,-4293.194464,-9474.636058,-1072.533697
7330.237805,-4071.132681,-9474.636058,-383.047749
7330.238121,-3627.009116,-9696.697840,-383.047749
7330.238438,-3330.926739,-9622.677246,-229.828649
7330.238754,-3552.988522,-9474.636058,0.000000
7330.239070,-3701.029710,-9844.739029,-383.047749
7330.239387,-4071.132681,-9474.636058,-689.485948
7330.239703,-3627.009116,-9548.656652,-1915.238745
7330.240020,-3997.112087,-9548.656652,-919.314598
7330.240336,-4515.256246,-8808.450710,-1915.238745
7330.240653,-4367.215058,-9178.553681,-919.314598
7330.240969,-4737.318029,-8512.368333,-1072.533697
7330.241286,-3627.009116,-9178.553681,-1149.143247
7330.241602,-4219.173869,-8808.450710,-1072.533697
7330.241919,-3627.009116,-8068.244768,-995.924147
7330.242235,-3552.988522,-8734.430116,229.828649
7330.242551,-2960.823768,-8660.409521,766.095498
7330.242868,-3034.844362,-9178.553681,536.266849
7330.243184,-3627.009116,-9326.594869,842.705048
7330.243501,-3034.844362,-9326.594869,459.657299
7330.243817,-3849.070898,-9030.512492,459.657299
7330.244134,-4145.153275,-8882.471304,766.095498
7330.244450,-3701.029710,-8808.450710,153.219100
7330.244767,-3997.112087,-8438.347739,536.266849
7330.245083,-4071.132681,-8142.265362,229.828649
7330.245400,-4145.153275,-8660.409521,229.828649
7330.245716,-3627.009116,-8068.244768,-383.047749
7330.246033,-3330.926739,-7846.182985,76.609550
7330.246349,-3775.050304,-7920.203579,153.219100
7330.246665,-3330.926739,-7920.203579,1072.533697
7330.246982,-2516.700203,-8290.306550,1225.752797
7330.247298,-3034.844362,-7994.224174,1302.362347
7330.247615,-3108.864956,-8142.265362,919.314598
7330.247931,-3034.844362,-8734.430116,1685.410096
7330.248248,-2442.679609,-9104.533087,1455.581446
7330.248564,-2886.803174,-7772.162391,1378.971896
7330.248881,-2886.803174,-8586.388927,1455.581446
7330.249197,-3701.029710,-8660.409521,1302.362347
7330.249514,-3775.050304,-8586.388927,612.876398
7330.249830,-3182.885551,-7994.224174,-459.657299
7330.250146,-3627.009116,-7476.080014,153.219100
7330.250463,-4071.132681,-8142.265362,306.438199
7330.250779,-3849.070898,-8660.409521,842.705048
7330.251096,-3775.050304,-8956.491898,1149.143247
7330.251412,-2960.823768,-7994.224174,306.438199
7330.251729,-2664.741391,-7328.038826,1072.533697
7330.252045,-3256.906145,-8438.347739,689.485948
7330.252362,-3182.885551,-8586.388927,612.876398
7330.252678,-3404.947333,-9030.512492,766.095498
7330.252995,-3775.050304,-8290.306550,1225.752797
7330.253311,-3775.050304,-8808.450710,1225.752797
7330.253628,-3701.029710,-8882.471304,612.876398
7330.253944,-3404.947333,-9104.533087,0.000000
7330.254261,-3997.112087,-8586.388927,-919.314598
7330.254577,-3997.112087,-8142.265362,-1991.848295
7330.254894,-3478.967927,-8068.244768,-1072.533697
7330.255210,-4071.132681,-8438.347739,-689.485948
7330.255527,-4441.235652,-8808.450710,612.876398
7330.255843,-4663.297435,-9696.697840,536.266849
7330.256160,-3701.029710,-9696.697840,-306.438199
7330.256476,-3997.112087,-9104.533087,229.828649
7330.256793,-4145.153275,-9178.553681,-459.657299
7330.257109,-3478.967927,-9474.636058,-919.314598
7330.257426,-3627.009116,-9400.615463,-919.314598
7330.257742,-3108.864956,-9548.656652,-689.485948
7330.258058,-3478.967927,-8882.471304,76.609550
7330.258375,-3552.988522,-8512.368333,0.000000
7330.258691,-3701.029710,-9252.574275,-612.876398
7330.259008,-3627.009116,-9474.636058,-1532.190996
7330.259324,-4145.153275,-9474.636058,-2221.676944
7330.259641,-3775.050304,-9252.574275,-1838.629195
7330.259957,-4071.132681,-9178.553681,-1072.533697
7330.260274,-3775.050304,-9474.636058,-536.266849
7330.260590,-3552.988522,-9622.677246,0.000000
7330.260907,-3404.947333,-10066.800811,612.876398
7330.261223,-3108.864956,-8882.471304,76.609550
7330.261540,-3330.926739,-9326.594869,-1072.533697
7330.261856,-3404.947333,-9474.636058,-1532.190996
7330.262173,-3627.009116,-9104.533087,-919.314598
7330.262489,-3923.091493,-8956.491898,-383.047749
7330.262806,-3997.112087,-8882.471304,-689.485948
7330.263122,-4293.194464,-9104.533087,-612.876398
7330.263439,-4219.173869,-8882.471304,-383.047749
7330.263755,-3775.050304,-8364.327145,-1685.410096
7330.264072,-3404.947333,-7846.182985,-1991.848295
7330.264388,-3404.947333,-7846.182985,-1608.800546
7330.264705,-3256.906145,-8734.430116,0.000000
7330.265021,-3108.864956,-8882.471304,842.705048
7330.265338,-3034.844362,-8956.491898,1225.752797
7330.265654,-3552.988522,-9400.615463,1838.629195
7330.265971,-4145.153275,-9474.636058,842.705048
7330.266287,-4145.153275,-10066.800811,612.876398
7330.266604,-3478.967927,-8734.430116,-766.095498
7330.266920,-3404.947333,-8438.347739,-842.705048
7330.267237,-3627.009116,-7550.100608,-536.266849
7330.267553,-3478.967927,-7920.203579,0.000000
7330.267870,-4145.153275,-8068.244768,153.219100
7330.268186,-4219.173869,-7698.141797,459.657299
7330.268503,-4145.153275,-7105.977043,76.609550
7330.268819,-4145.153275,-8068.244768,-306.438199
7330.269136,-3923.091493,-8142.265362,-459.657299
7330.269452,-3701.029710,-8808.450710,0.000000
7330.269768,-3182.885551,-8586.388927,842.705048
7330.270085,-2738.761985,-8660.409521,2298.286494
7330.270401,-2812.782580,-8290.306550,2221.676944
7330.270718,-2664.741391,-8512.368333,2068.457845
7330.271034,-3478.967927,-8438.347739,1072.533697
7330.271351,-3923.091493,-9474.636058,0.000000
7330.271667,-4367.215058,-9178.553681,-459.657299
7330.271984,-3849.070898,-8142.265362,-612.876398
7330.272300,-4293.194464,-7550.100608,0.000000
7330.272617,-4737.318029,-7772.162391,306.438199
7330.272933,-4219.173869,-8512.368333,459.657299
7330.273250,-3330.926739,-8438.347739,-459.657299
7330.273566,-3182.885551,-8068.244768,306.438199
7330.273883,-3034.844362,-7994.224174,612.876398
7330.274199,-2590.720797,-8660.409521,1149.143247
7330.274516,-2738.761985,-9474.636058,1378.971896
7330.274832,-2664.741391,-8882.471304,1455.581446
7330.275149,-3330.926739,-8808.450710,1685.410096
7330.275465,-3923.091493,-9474.636058,1302.362347
7330.275782,-4071.132681,-9696.697840,-689.485948
7330.276098,-4589.276840,-9326.594869,-995.924147
7330.276415,-4367.215058,-9030.512492,-1378.971896
7330.276731,-3923.091493,-8512.368333,-1149.143247
7330.277048,-3552.988522,-8068.244768,-612.876398
7330.277364,-3701.029710,-8660.409521,0.000000
7330.277681,-3478.967927,-8512.368333,0.000000
7330.277997,-3404.947333,-8512.368333,306.438199
7330.278314,-3182.885551,-8586.388927,-229.828649
7330.278630,-3256.906145,-9400.615463,-459.657299
7330.278947,-3404.947333,-9474.636058,459.657299
7330.279263,-3775.050304,-9326.594869,766.095498
7330.279580,-3182.885551,-8956.491898,536.266849
7330.279896,-3256.906145,-9400.615463,383.047749
7330.280213,-4071.132681,-9400.615463,536.266849
7330.280529,-4441.235652,-8882.471304,-1149.143247
7330.280846,-4441.235652,-8956.491898,-1225.752797
7330.281162,-4515.256246,-9326.594869,-1991.848295
7330.281478,-4737.318029,-8734.430116,-1378.971896
7330.281795,-4663.297435,-8956.491898,-995.924147
7330.282111,-3997.112087,-8364.327145,-383.047749
7330.282428,-2886.803174,-8512.368333,-689.485948
7330.282744,-2664.741391,-8734.430116,153.219100
7330.283061,-3256.906145,-8216.285956,0.000000
7330.283377,-3182.885551,-8956.491898,0.000000
7330.283694,-3330.926739,-8660.409521,229.828649
7330.284010,-3108.864956,-9622.677246,0.000000
7330.284327,-4145.153275,-9400.615463,229.828649
7330.284643,-4663.297435,-9252.574275,0.000000
7330.284960,-4663.297435,-9474.636058,-842.705048
7330.285276,-4737.318029,-8660.409521,-1302.362347
7330.285593,-3997.112087,-9326.594869,-2221.676944
7330.285909,-4293.194464,-8512.368333,-1455.581446
7330.286226,-3775.050304,-8438.347739,-842.705048
7330.286542,-3701.029710,-8586.388927,-536.266849
7330.286859,-3256.906145,-8290.306550,0.000000
7330.287175,-2664.741391,-8734.430116,-612.876398
7330.287492,-3108.864956,-8068.244768,0.000000
7330.287808,-2960.823768,-8660.409521,612.876398
7330.288125,-3552.988522,-8956.491898,153.219100
7330.288441,-3552.988522,-9030.512492,766.095498
7330.288758,-3701.029710,-9252.574275,76.609550
7330.289074,-3404.947333,-9252.574275,153.219100
7330.289391,-3552.988522,-9252.574275,-229.828649
7330.289707,-3701.029710,-8734.430116,-612.876398
7330.290024,-4367.215058,-8956.491898,-766.095498
7330.290340,-3997.112087,-8290.306550,0.000000
7330.290657,-4515.256246,-8882.471304,-612.876398
7330.290973,-3627.009116,-9178.553681,-1302.362347
7330.291290,-3404.947333,-8956.491898,-536.266849
7330.291606,-3108.864956,-8882.471304,0.000000
7330.291923,-2960.823768,-8216.285956,1455.581446
7330.292239,-2368.659014,-8068.244768,1608.800546
7330.292556,-1776.494261,-8956.491898,919.314598
7330.292872,-2220.617826,-8586.388927,1302.362347
7330.293189,-3108.864956,-8808.450710,1302.362347
7330.293505,-4071.132681,-8364.327145,842.705048
7330.293821,-4219.173869,-8808.450710,306.438199
7330.294138,-4737.318029,-8660.409521,0.000000
7330.294454,-4885.359217,-9104.533087,-612.876398
7330.294771,-4885.359217,-8808.450710,-612.876398
7330.295087,-4589.276840,-8438.347739,-612.876398
7330.295404,-3923.091493,-8586.388927,-306.438199
7330.295720,-3552.988522,-8586.388927,306.438199
7330.296037,-3108.864956,-8586.388927,842.705048
7330.296353,-2812.782580,-8586.388927,995.924147
7330.296670,-2368.659014,-8364.327145,1302.362347
7330.296986,-2294.638420,-8438.347739,1532.190996
7330.297303,-2368.659014,-8068.244768,1608.800546
7330.297619,-2886.803174,-8068.244768,1378.971896
7330.297936,-3701.029710,-7994.224174,1072.533697
7330.298252,-4071.132681,-8512.368333,-306.438199
7330.298569,-4515.256246,-8586.388927,-612.876398
7330.298885,-4737.318029,-8734.430116,-995.924147
7330.299202,-4737.318029,-8290.306550,-995.924147
7330.299518,-5181.441594,-8290.306550,-842.705048
7330.299835,-5181.441594,-8956.491898,-153.219100
7330.300151,-4515.256246,-9178.553681,-689.485948
7330.300468,-3997.112087,-9474.636058,-459.657299
7330.300784,-3034.844362,-9104.533087,0.000000
7330.301101,-2442.679609,-9326.594869,919.314598
7330.301417,-1998.556043,-8734.430116,536.266849
7330.301734,-2072.576638,-8882.471304,1532.190996
7330.302050,-2072.576638,-8882.471304,536.266849
7330.302367,-2960.823768,-8660.409521,383.047749
7330.302683,-3478.967927,-8512.368333,383.047749
7330.303000,-4515.256246,-8364.327145,-306.438199
7330.303316,-4589.276840,-8364.327145,-1302.362347
7330.303633,-5255.462188,-8586.388927,-1302.362347
7330.303949,-4885.359217,-9030.512492,-1532.190996
7330.304266,-4737.318029,-8660.409521,-1378.971896
7330.304582,-4071.132681,-8882.471304,0.000000
7330.304899,-3849.070898,-8882.471304,0.000000
7330.305215,-3478.967927,-9400.615463,229.828649
7330.305531,-2738.761985,-9474.636058,0.000000
7330.305848,-2072.576638,-9696.697840,76.609550
7330.306164,-2146.597232,-9474.636058,612.876398
7330.306481,-2146.597232,-9252.574275,919.314598
7330.306797,-2516.700203,-8882.471304,1225.752797
7330.307114,-2886.803174,-8808.450710,536.266849
7330.307430,-3627.009116,-9326.594869,-306.438199
7330.307747,-3775.050304,-9326.594869,-919.314598
7330.308063,-3849.070898,-8660.409521,-995.924147
7330.308380,-4071.132681,-8808.450710,-919.314598
7330.308696,-4293.194464,-8290.306550,153.219100
7330.309013,-4663.297435,-8586.388927,306.438199
7330.309329,-4737.318029,-8660.409521,-612.876398
7330.309646,-3775.050304,-9104.533087,-383.047749
7330.309962,-3108.864956,-9030.512492,-689.485948
7330.310279,-3404.947333,-8142.265362,612.876398
7330.310595,-3478.967927,-8290.306550,766.095498
7330.310912,-3256.906145,-8438.347739,1225.752797
7330.311228,-3478.967927,-9104.533087,-153.219100
7330.311545,-3849.070898,-9104.533087,153.219100
7330.311861,-4293.194464,-9030.512492,0.000000
7330.312178,-4441.235652,-8734.430116,229.828649
7330.312494,-4589.276840,-8882.471304,153.219100
7330.312811,-5033.400406,-8586.388927,0.000000
7330.313127,-5403.503377,-8734.430116,-536.266849
7330.313444,-5033.400406,-9104.533087,-766.095498
7330.313760,-4293.194464,-8586.388927,-306.438199
7330.314077,-3404.947333,-8734.430116,-536.266849
7330.314393,-4145.153275,-7698.141797,1072.533697
7330.314710,-4219.173869,-8438.347739,1302.362347
7330.315026,-3997.112087,-8956.491898,383.047749
7330.315343,-3182.885551,-8956.491898,-229.828649
7330.315659,-3256.906145,-8660.409521,383.047749
7330.315976,-3775.050304,-8660.409521,1838.629195
7330.316292,-3034.844362,-8438.347739,2374.896044
7330.316609,-2442.679609,-9326.594869,2374.896044
7330.316925,-2442.679609,-9474.636058,1302.362347
7330.317241,-3330.926739,-9400.615463,995.924147
7330.317558,-3923.091493,-9104.533087,1149.143247
7330.317874,-3552.988522,-9030.512492,612.876398
7330.318191,-3701.029710,-8882.471304,1378.971896
7330.318507,-3552.988522,-9178.553681,2298.286494
7330.318824,-3997.112087,-9030.512492,1762.019645
7330.319140,-3108.864956,-9326.594869,536.266849
7330.319457,-3182.885551,-8882.471304,1302.362347
7330.319773,-3034.844362,-8660.409521,1225.752797
7330.320090,-2960.823768,-8438.347739,1915.238745
7330.320406,-2220.617826,-8142.265362,2298.286494
7330.320723,-2220.617826,-8364.327145,2298.286494
7330.321039,-2146.597232,-8290.306550,2757.943793
7330.321356,-2664.741391,-8142.265362,2911.162892
7330.321672,-3034.844362,-8142.265362,2221.676944
7330.321989,-3108.864956,-8438.347739,1225.752797
7330.322305,-3849.070898,-8734.430116,842.705048
7330.322622,-4219.173869,-8512.368333,612.876398
7330.322938,-4515.256246,-8364.327145,919.314598
7330.323255,-3701.029710,-8660.409521,1072.533697
7330.323571,-3701.029710,-9104.533087,459.657299
7330.323888,-3627.009116,-8808.450710,1225.752797
7330.324204,-3330.926739,-9030.512492,1225.752797
7330.324521,-2368.659014,-8438.347739,919.314598
7330.324837,-2886.803174,-8142.265362,1685.410096
7330.325154,-3034.844362,-8512.368333,1532.190996
7330.325470,-2960.823768,-8290.306550,2145.067394
7330.325787,-3478.967927,-8882.471304,1532.190996
7330.326103,-3404.947333,-8586.388927,919.314598
7330.326420,-4219.173869,-8512.368333,153.219100
7330.326736,-4367.215058,-8438.347739,383.047749
7330.327053,-4219.173869,-8734.430116,0.000000
7330.327369,-4145.153275,-8438.347739,153.219100
7330.327686,-3775.050304,-8512.368333,-459.657299
7330.328002,-3997.112087,-8364.327145,-229.828649
7330.328319,-4367.215058,-8586.388927,229.828649
7330.328635,-4885.359217,-8808.450710,383.047749
7330.328952,-4589.276840,-9252.574275,0.000000
7330.329268,-3849.070898,-9474.636058,-306.438199
7330.329584,-3627.009116,-8882.471304,229.828649
7330.329901,-3627.009116,-9030.512492,1225.752797
7330.330217,-3849.070898,-8882.471304,1455.581446
7330.330534,-3552.988522,-8808.450710,842.705048
7330.330850,-3330.926739,-8734.430116,306.438199
7330.331167,-4071.132681,-8956.491898,-689.485948
7330.331483,-4367.215058,-9252.574275,-306.438199
7330.331800,-4219.173869,-8808.450710,-459.657299
7330.332116,-3923.091493,-8586.388927,0.000000
7330.332433,-3997.112087,-8660.409521,-1302.362347
7330.332749,-3849.070898,-9030.512492,229.828649
7330.333066,-3775.050304,-8956.491898,0.000000
7330.333382,-2960.823768,-8660.409521,-383.047749
7330.333699,-2738.761985,-9030.512492,0.000000
7330.334015,-3034.844362,-9548.656652,919.314598
7330.334332,-3256.906145,-9548.656652,842.705048
7330.334648,-2960.823768,-9992.780217,306.438199
7330.334965,-3330.926739,-9992.780217,153.219100
7330.335281,-3330.926739,-9474.636058,0.000000
7330.335598,-3552.988522,-9474.636058,153.219100
7330.335914,-3923.091493,-9030.512492,153.219100
7330.336231,-3997.112087,-9178.553681,-153.219100
7330.336547,-4071.132681,-9178.553681,-612.876398
7330.336864,-4219.173869,-9252.574275,-612.876398
7330.337180,-3775.050304,-8660.409521,-612.876398
7330.337497,-3478.967927,-8438.347739,306.438199
7330.337813,-3256.906145,-7772.162391,766.095498
7330.338130,-3701.029710,-8290.306550,1072.533697
7330.338446,-3552.988522,-8586.388927,842.705048
7330.338763,-3552.988522,-8882.471304,689.485948
7330.339079,-3330.926739,-9326.594869,612.876398
7330.339396,-3997.112087,-8808.450710,689.485948
7330.339712,-3478.967927,-8660.409521,1072.533697
7330.340029,-4071.132681,-9178.553681,995.924147
7330.340345,-3849.070898,-8808.450710,1072.533697
7330.340662,-3701.029710,-9474.636058,459.657299
7330.340978,-3923.091493,-8512.368333,0.000000
7330.341294,-3701.029710,-8438.347739,536.266849
7330.341611,-4293.194464,-8364.327145,919.314598
7330.341927,-3923.091493,-7772.162391,1072.533697
7330.342244,-3404.947333,-8586.388927,995.924147
7330.342560,-3552.988522,-8068.244768,1455.581446
7330.342877,-2960.823768,-7994.224174,689.485948
7330.343193,-3997.112087,-8216.285956,1762.019645
7330.343510,-3404.947333,-8068.244768,1838.629195
7330.343826,-3627.009116,-8438.347739,1378.971896
7330.344143,-3701.029710,-8438.347739,1455.581446
7330.344459,-3627.009116,-8586.388927,1532.190996
7330.344776,-3701.029710,-8438.347739,1072.533697
7330.345092,-4071.132681,-7846.182985,1072.533697
7330.345409,-4293.194464,-7920.203579,1072.533697
7330.345725,-4441.235652,-9030.512492,689.485948
7330.346042,-3478.967927,-8808.450710,306.438199
7330.346358,-3478.967927,-8364.327145,766.095498
7330.346675,-3552.988522,-8586.388927,1302.362347
7330.346991,-3627.009116,-8882.471304,2374.896044
7330.347308,-4219.173869,-8364.327145,2681.334243
7330.347624,-2812.782580,-7994.224174,1225.752797
7330.347941,-3034.844362,-8216.285956,1685.410096
7330.348257,-3478.967927,-9474.636058,1532.190996
7330.348574,-3701.029710,-9104.533087,1455.581446
7330.348890,-3478.967927,-8290.306550,1302.362347
7330.349207,-3182.885551,-8364.327145,1302.362347
7330.349523,-4219.173869,-8586.388927,919.314598
7330.349840,-4145.153275,-9548.656652,612.876398
7330.350156,-3627.009116,-9474.636058,459.657299
7330.350473,-3256.906145,-9030.512492,919.314598
7330.350789,-3034.844362,-7698.141797,919.314598
7330.351106,-2960.823768,-8438.347739,1225.752797
7330.351422,-3108.864956,-9548.656652,1302.362347
7330.351739,-3404.947333,-9030.512492,459.657299
7330.352055,-2738.761985,-8956.491898,1302.362347
7330.352372,-3108.864956,-8956.491898,2145.067394
7330.352688,-3256.906145,-9104.533087,1378.971896
7330.353004,-3404.947333,-9030.512492,919.314598
7330.353321,-3478.967927,-9030.512492,-229.828649
7330.353637,-3775.050304,-8438.347739,-919.314598
7330.353954,-4145.153275,-8956.491898,-536.266849
7330.354270,-4071.132681,-9178.553681,0.000000
7330.354586,-5329.482782,-8882.471304,1608.800546
7330.354903,-4219.173869,-8808.450710,612.876398
7330.355219,-3627.009116,-8882.471304,76.609550
7330.355535,-4145.153275,-9696.697840,-383.047749
7330.355852,-3552.988522,-9178.553681,-536.266849
7330.356168,-3404.947333,-8586.388927,229.828649
7330.356485,-3034.844362,-7772.162391,229.828649
7330.356801,-2960.823768,-8586.388927,459.657299
7330.357117,-3849.070898,-8586.388927,689.485948
7330.357434,-3627.009116,-8808.450710,612.876398
7330.357750,-3330.926739,-8660.409521,-536.266849
7330.358067,-3256.906145,-8290.306550,-1838.629195
7330.358383,-4071.132681,-8660.409521,-1608.800546
7330.358699,-4737.318029,-8734.430116,-766.095498
7330.359016,-4293.194464,-9030.512492,153.219100
7330.359332,-3775.050304,-8586.388927,-383.047749
7330.359648,-4219.173869,-9326.594869,689.485948
7330.359965,-4515.256246,-9918.759623,919.314598
7330.360281,-4071.132681,-10436.903782,842.705048
7330.360598,-3923.091493,-9548.656652,0.000000
7330.360914,-3034.844362,-8586.388927,-229.828649
7330.361230,-2590.720797,-9030.512492,-306.438199
7330.361547,-3330.926739,-8512.368333,383.047749
7330.361863,-3627.009116,-8512.368333,0.000000
7330.362179,-3923.091493,-7698.141797,-1072.533697
7330.362496,-4071.132681,-8586.388927,-1225.752797
7330.362812,-4589.276840,-8882.471304,-1378.971896
7330.363129,-3923.091493,-8808.450710,-919.314598
7330.363445,-3552.988522,-8882.471304,-612.876398
7330.363761,-2960.823768,-8882.471304,1302.362347
7330.364078,-3330.926739,-8216.285956,2451.505594
7330.364394,-3034.844362,-9326.594869,2451.505594
7330.364711,-3256.906145,-9622.677246,2374.896044
7330.365027,-3478.967927,-9770.718434,1915.238745
7330.365343,-3330.926739,-9400.615463,612.876398
7330.365660,-3552.988522,-8882.471304,76.609550
7330.365976,-3997.112087,-8142.265362,-229.828649
7330.366292,-4367.215058,-7846.182985,-995.924147
7330.366609,-4515.256246,-8586.388927,-1378.971896
7330.366925,-3775.050304,-8586.388927,-459.657299
7330.367242,-4145.153275,-8512.368333,689.485948
7330.367558,-3478.967927,-8956.491898,1455.581446
7330.367874,-2738.761985,-8586.388927,2145.067394
7330.368191,-1554.432478,-8438.347739,1762.019645
7330.368507,-1924.535449,-8734.430116,2145.067394
7330.368824,-2664.741391,-8660.409521,2987.772442
7330.369140,-3108.864956,-8216.285956,3064.381992
7330.369456,-3182.885551,-8216.285956,1685.410096
7330.369773,-3849.070898,-8216.285956,995.924147
7330.370089,-5255.462188,-9104.533087,-153.219100
7330.370405,-5625.565159,-9844.739029,-1302.362347
7330.370722,-5329.482782,-9400.615463,-1762.019645
7330.371038,-4441.235652,-7772.162391,-689.485948
7330.371355,-3701.029710,-7550.100608,0.000000
7330.371671,-3256.906145,-8512.368333,1685.410096
7330.371987,-2664.741391,-9474.636058,2757.943793
7330.372304,-1924.535449,-8660.409521,2987.772442
7330.372620,-1554.432478,-8364.327145,2681.334243
7330.372936,-2220.617826,-8660.409521,3370.820191
7330.373253,-2590.720797,-8882.471304,2298.286494
7330.373569,-3182.885551,-8290.306550,1532.190996
7330.373886,-3923.091493,-8290.306550,766.095498
7330.374202,-4737.318029,-8068.244768,689.485948
7330.374518,-5699.585753,-8586.388927,0.000000
7330.374835,-5773.606348,-9326.594869,-842.705048
7330.375151,-5625.565159,-9104.533087,-1072.533697
7330.375468,-4737.318029,-8586.388927,-1455.581446
7330.375784,-3404.947333,-8586.388927,306.438199
7330.376100,-2812.782580,-8438.347739,1608.800546
7330.376417,-2072.576638,-8216.285956,3830.477490
7330.376733,-1480.411884,-8364.327145,3217.601092
7330.377049,-1628.453072,-8512.368333,3140.991542
7330.377366,-1924.535449,-8882.471304,2298.286494
7330.377682,-1998.556043,-9326.594869,995.924147
7330.377999,-3256.906145,-9104.533087,1302.362347
7330.378315,-4071.132681,-8512.368333,919.314598
7330.378631,-4293.194464,-8956.491898,0.000000
7330.378948,-5625.565159,-9326.594869,0.000000
7330.379264,-5847.626942,-8882.471304,-919.314598
7330.379581,-5551.544565,-8438.347739,-995.924147
7330.379897,-4737.318029,-8512.368333,-919.314598
7330.380213,-4071.132681,-8512.368333,-689.485948
7330.380530,-3330.926739,-8068.244768,536.266849
7330.380846,-2738.761985,-8734.430116,1225.752797
7330.381162,-1628.453072,-8290.306550,1915.238745
7330.381479,-2072.576638,-8512.368333,1685.410096
7330.381795,-1998.556043,-8808.450710,1225.752797
7330.382112,-2738.761985,-9326.594869,1302.362347
7330.382428,-3627.009116,-8438.347739,842.705048
7330.382744,-3701.029710,-9030.512492,0.000000
7330.383061,-4737.318029,-9770.718434,76.609550
7330.383377,-4959.379811,-8956.491898,-766.095498
7330.383693,-4959.379811,-9400.615463,-459.657299
7330.384010,-5255.462188,-8882.471304,-612.876398
7330.384326,-4737.318029,-8734.430116,0.000000
7330.384643,-4441.235652,-8956.491898,-919.314598
7330.384959,-3701.029710,-8660.409521,-383.047749
7330.385275,-3552.988522,-8808.450710,-229.828649
7330.385592,-3108.864956,-7846.182985,0.000000
7330.385908,-2442.679609,-8808.450710,842.705048
7330.386225,-2812.782580,-9030.512492,766.095498
7330.386541,-2442.679609,-8586.388927,766.095498
7330.386857,-3108.864956,-9326.594869,612.876398
7330.387174,-3478.967927,-9474.636058,689.485948
7330.387490,-3701.029710,-9548.656652,0.000000
7330.387806,-3552.988522,-9178.553681,306.438199
7330.388123,-3478.967927,-9474.636058,-76.609550
7330.388439,-4515.256246,-8808.450710,229.828649
7330.388756,-3997.112087,-9400.615463,-612.876398
7330.389072,-3849.070898,-9178.553681,0.000000
7330.389388,-4293.194464,-8956.491898,-536.266849
7330.389705,-3775.050304,-8660.409521,0.000000
7330.390021,-3627.009116,-8956.491898,76.609550
7330.390338,-3108.864956,-9326.594869,1378.971896
7330.390654,-3256.906145,-8586.388927,1149.143247
7330.390970,-3108.864956,-8438.347739,1608.800546
7330.391287,-3404.947333,-9104.533087,1762.019645
7330.391603,-3034.844362,-8808.450710,1149.143247
7330.391919,-2960.823768,-9104.533087,766.095498
7330.392236,-3997.112087,-8438.347739,306.438199
7330.392552,-4145.153275,-8438.347739,1378.971896
7330.392869,-4589.276840,-8882.471304,76.609550
7330.393185,-4367.215058,-8660.409521,-536.266849
7330.393501,-4589.276840,-8808.450710,-459.657299
7330.393818,-4515.256246,-8882.471304,-459.657299
7330.394134,-4219.173869,-8808.450710,383.047749
7330.394450,-3552.988522,-8956.491898,383.047749
7330.394767,-2664.741391,-9030.512492,1302.362347
7330.395083,-2368.659014,-8734.430116,2374.896044
7330.395400,-2738.761985,-9104.533087,2604.724693
7330.395716,-2664.741391,-9030.512492,2451.505594
7330.396032,-2516.700203,-9030.512492,2451.505594
7330.396349,-3108.864956,-9030.512492,1991.848295
7330.396665,-3627.009116,-8956.491898,1915.238745
7330.396982,-4071.132681,-8512.368333,1225.752797
7330.397298,-4737.318029,-8068.244768,1072.533697
7330.397614,-5033.400406,-8068.244768,306.438199
7330.397931,-4515.256246,-7920.203579,-76.609550
7330.398247,-4515.256246,-7772.162391,-229.828649
7330.398563,-4367.215058,-7772.162391,153.219100
7330.398880,-3775.050304,-7920.203579,689.485948
7330.399196,-3404.947333,-7994.224174,1608.800546
7330.399513,-3034.844362,-8586.388927,1762.019645
7330.399829,-2146.597232,-8512.368333,2451.505594
7330.400145,-2072.576638,-8512.368333,2911.162892
7330.400462,-2294.638420,-8956.491898,2834.553343
7330.400778,-2516.700203,-9178.553681,2987.772442
7330.401095,-3034.844362,-9178.553681,2374.896044
7330.401411,-3478.967927,-9326.594869,1455.581446
7330.401727,-3478.967927,-9178.553681,1149.143247
7330.402044,-3997.112087,-8290.306550,-76.609550
7330.402360,-4737.318029,-7772.162391,459.657299
7330.402676,-4737.318029,-7772.162391,-153.219100
7330.402993,-4441.235652,-7772.162391,-995.924147
7330.403309,-4293.194464,-7698.141797,-1072.533697
7330.403626,-3849.070898,-7994.224174,-383.047749
7330.403942,-3478.967927,-7846.182985,306.438199
7330.404258,-2294.638420,-8586.388927,1532.190996
7330.404575,-1776.494261,-8956.491898,1149.143247
7330.404891,-1406.391290,-9104.533087,1838.629195
7330.405207,-2294.638420,-9474.636058,2145.067394
7330.405524,-2960.823768,-9474.636058,2068.457845
7330.405840,-3108.864956,-10066.800811,1225.752797
7330.406157,-2960.823768,-10066.800811,229.828649
7330.406473,-3478.967927,-9178.553681,76.609550
7330.406789,-4441.235652,-8734.430116,-842.705048
7330.407106,-5107.421000,-9178.553681,-766.095498
7330.407422,-4811.338623,-9770.718434,-1838.629195
7330.407739,-4811.338623,-8586.388927,-1915.238745
7330.408055,-4367.215058,-8364.327145,-1455.581446
7330.408371,-3849.070898,-8364.327145,-306.438199
7330.408688,-3034.844362,-8586.388927,1072.533697
7330.409004,-3182.885551,-8660.409521,1149.143247
7330.409320,-3034.844362,-8882.471304,1072.533697
7330.409637,-2368.659014,-9252.574275,1149.143247
7330.409953,-3478.967927,-9104.533087,995.924147
7330.410270,-3775.050304,-9400.615463,459.657299
7330.410586,-4515.256246,-9030.512492,0.000000
7330.410902,-5033.400406,-8586.388927,-76.609550
7330.411219,-5699.585753,-8512.368333,-766.095498
7330.411535,-6291.750507,-8586.388927,-2911.162892
7330.411852,-5773.606348,-9178.553681,-2451.505594
7330.412168,-5329.482782,-8216.285956,-2528.115143
7330.412484,-4737.318029,-8142.265362,-1838.629195
7330.412801,-3997.112087,-8142.265362,-536.266849
7330.413117,-3256.906145,-8290.306550,-459.657299
7330.413433,-2664.741391,-8660.409521,383.047749
7330.413750,-2590.720797,-8586.388927,0.000000
7330.414066,-1184.329507,-9474.636058,536.266849
7330.414383,-1998.556043,-8882.471304,-153.219100
7330.414699,-2442.679609,-9178.553681,689.485948
7330.415015,-3330.926739,-9474.636058,229.828649
7330.415332,-3627.009116,-9474.636058,-612.876398
7330.415648,-3701.029710,-9622.677246,-1838.629195
7330.415964,-3775.050304,-9474.636058,-1915.238745
7330.416281,-4293.194464,-8956.491898,-2145.067394
7330.416597,-3849.070898,-8216.285956,-919.314598
7330.416914,-3849.070898,-8364.327145,-1838.629195
7330.417230,-3552.988522,-8882.471304,-1302.362347
7330.417546,-3552.988522,-8734.430116,-1149.143247
7330.417863,-3108.864956,-8808.450710,-919.314598
7330.418179,-2664.741391,-8660.409521,0.000000
7330.418496,-2590.720797,-8734.430116,459.657299
7330.418812,-2886.803174,-9030.512492,766.095498
7330.419128,-3034.844362,-8956.491898,842.705048
7330.419445,-3552.988522,-9400.615463,0.000000
7330.419761,-3997.112087,-9104.533087,-306.438199
7330.420077,-4515.256246,-9474.636058,-1149.143247
7330.420394,-4737.318029,-9252.574275,-1072.533697
7330.420710,-4811.338623,-8586.388927,-2068.457845
7330.421027,-4885.359217,-8808.450710,-1378.971896
7330.421343,-4441.235652,-8586.388927,-1225.752797
7330.421659,-3478.967927,-9178.553681,-995.924147
7330.421976,-2960.823768,-8808.450710,-306.438199
7330.422292,-2664.741391,-8438.347739,306.438199
7330.422609,-2146.597232,-8808.450710,1149.143247
7330.422925,-2220.617826,-9326.594869,1378.971896
7330.423241,-2294.638420,-9104.533087,1302.362347
7330.423558,-2294.638420,-9104.533087,1608.800546
7330.423874,-3034.844362,-8734.430116,919.314598
7330.424190,-4071.132681,-8882.471304,459.657299
7330.424507,-4885.359217,-8956.491898,306.438199
7330.424823,-4959.379811,-8882.471304,-612.876398
7330.425140,-5033.400406,-9030.512492,-995.924147
7330.425456,-4589.276840,-9178.553681,-919.314598
7330.425772,-4737.318029,-8142.265362,-536.266849
7330.426089,-4885.359217,-8660.409521,0.000000
7330.426405,-4219.173869,-8068.244768,612.876398
7330.426721,-3478.967927,-8512.368333,0.000000
7330.427038,-2812.782580,-8660.409521,229.828649
7330.427354,-2960.823768,-7994.224174,766.095498
7330.427671,-3478.967927,-8142.265362,1838.629195
7330.427987,-2738.761985,-7698.141797,1455.581446
7330.428303,-2812.782580,-8068.244768,536.266849
7330.428620,-3182.885551,-8512.368333,-306.438199
7330.428936,-3627.009116,-8734.430116,76.609550
7330.429253,-4293.194464,-8512.368333,229.828649
7330.429569,-4293.194464,-8364.327145,0.000000
7330.429885,-4367.215058,-8808.450710,-383.047749
7330.430202,-3997.112087,-9104.533087,-459.657299
7330.430518,-3478.967927,-9548.656652,0.000000
7330.430834,-2960.823768,-9400.615463,-153.219100
7330.431151,-2886.803174,-8808.450710,1149.143247
7330.431467,-3330.926739,-8512.368333,1838.629195
7330.431784,-2886.803174,-9030.512492,842.705048
7330.432100,-2442.679609,-9400.615463,536.266849
7330.432416,-2368.659014,-8882.471304,0.000000
7330.432733,-2738.761985,-8734.430116,306.438199
7330.433049,-3404.947333,-8142.265362,1685.410096
7330.433366,-3627.009116,-7846.182985,1302.362347
7330.433682,-4145.153275,-8216.285956,306.438199
7330.433998,-4219.173869,-9104.533087,-1149.143247
7330.434315,-4367.215058,-8734.430116,-1762.019645
7330.434631,-4293.194464,-8586.388927,-1685.410096
7330.434947,-4219.173869,-8290.306550,-919.314598
7330.435264,-3849.070898,-8290.306550,153.219100
7330.435580,-3256.906145,-9178.553681,76.609550
7330.435897,-3330.926739,-9104.533087,0.000000
7330.436213,-2812.782580,-9474.636058,-536.266849
7330.436529,-2664.741391,-9400.615463,229.828649
7330.436846,-2442.679609,-8882.471304,536.266849
7330.437162,-2738.761985,-9252.574275,766.095498
7330.437478,-3034.844362,-8364.327145,459.657299
7330.437795,-3330.926739,-9030.512492,612.876398
7330.438111,-3997.112087,-8808.450710,0.000000
7330.438428,-4515.256246,-8512.368333,-1072.533697
7330.438744,-5329.482782,-8364.327145,-1072.533697
7330.439060,-5403.503377,-7920.203579,-1378.971896
7330.439377,-5181.441594,-9104.533087,-1608.800546
7330.439693,-5477.523971,-8438.347739,-1455.581446
7330.440010,-4589.276840,-8734.430116,-995.924147
7330.440326,-4293.194464,-9326.594869,-689.485948
7330.440642,-3552.988522,-8660.409521,-612.876398
7330.440959,-3404.947333,-9326.594869,0.000000
7330.441275,-3256.906145,-9400.615463,383.047749
7330.441591,-2738.761985,-9696.697840,306.438199
7330.441908,-2738.761985,-9252.574275,-306.438199
7330.442224,-2960.823768,-8956.491898,-306.438199
7330.442541,-2886.803174,-9178.553681,306.438199
7330.442857,-4441.235652,-8808.450710,-153.219100
7330.443173,-4145.153275,-9252.574275,-1302.362347
7330.443490,-4515.256246,-8808.450710,-1532.190996
7330.443806,-4737.318029,-9178.553681,-1378.971896
7330.444123,-4663.297435,-8882.471304,-1149.143247
7330.444439,-4367.215058,-8660.409521,153.219100
7330.444755,-3923.091493,-8068.244768,-612.876398
7330.445072,-3775.050304,-7994.224174,0.000000
7330.445388,-3701.029710,-9400.615463,76.609550
7330.445704,-3330.926739,-9030.512492,0.000000
7330.446021,-2664.741391,-8364.327145,0.000000
7330.446337,-2516.700203,-8438.347739,612.876398
7330.446654,-3404.947333,-9474.636058,536.266849
7330.446970,-3330.926739,-9548.656652,689.485948
7330.447286,-2886.803174,-8956.491898,-229.828649
7330.447603,-3256.906145,-8586.388927,383.047749
7330.447919,-3256.906145,-8068.244768,153.219100
7330.448235,-3923.091493,-8882.471304,0.000000
7330.448552,-3997.112087,-10140.821405,-612.876398
7330.448868,-4219.173869,-9178.553681,0.000000
7330.449185,-3627.009116,-8142.265362,0.000000
7330.449501,-3404.947333,-7920.203579,536.266849
7330.449817,-3256.906145,-7994.224174,612.876398
7330.450134,-2886.803174,-8734.430116,459.657299
7330.450450,-2960.823768,-8290.306550,0.000000
7330.450767,-2738.761985,-7476.080014,-306.438199
7330.451083,-2960.823768,-7624.121203,76.609550
7330.451399,-3627.009116,-8438.347739,1838.629195
7330.451716,-4441.235652,-8882.471304,2068.457845
7330.452032,-3849.070898,-8512.368333,1302.362347
7330.452348,-3404.947333,-8734.430116,-306.438199
7330.452665,-4663.297435,-8734.430116,0.000000
7330.452981,-4293.194464,-9178.553681,-689.485948
7330.453298,-4219.173869,-8660.409521,0.000000
7330.453614,-3478.967927,-8586.388927,0.000000
7330.453930,-3552.988522,-8068.244768,1378.971896
7330.454247,-2738.761985,-8660.409521,1302.362347
7330.454563,-3404.947333,-8808.450710,842.705048
7330.454880,-3108.864956,-8956.491898,842.705048
7330.455196,-3404.947333,-8364.327145,-383.047749
7330.455512,-3627.009116,-8290.306550,-459.657299
7330.455829,-3849.070898,-8364.327145,306.438199
7330.456145,-3775.050304,-8660.409521,383.047749
7330.456461,-3627.009116,-8660.409521,153.219100
7330.456778,-3849.070898,-9104.533087,0.000000
7330.457094,-3701.029710,-8808.450710,536.266849
7330.457411,-3404.947333,-9178.553681,-383.047749
7330.457727,-3478.967927,-9252.574275,-153.219100
7330.458043,-3701.029710,-9104.533087,0.000000
7330.458360,-3256.906145,-8882.471304,0.000000
7330.458676,-3701.029710,-8512.368333,1302.362347
7330.458992,-3997.112087,-8734.430116,919.314598
7330.459309,-3849.070898,-9104.533087,842.705048
7330.459625,-4145.153275,-9252.574275,0.000000
7330.459942,-3849.070898,-8956.491898,-1225.752797
7330.460258,-3478.967927,-8216.285956,-612.876398
7330.460574,-3256.906145,-8216.285956,-689.485948
7330.460891,-3552.988522,-7920.203579,459.657299
7330.461207,-3701.029710,-8512.368333,536.266849
7330.461523,-3404.947333,-9548.656652,536.266849
7330.461840,-3775.050304,-9400.615463,153.219100
7330.462156,-3701.029710,-9622.677246,0.000000
7330.462473,-4219.173869,-9326.594869,306.438199
7330.462789,-3775.050304,-9770.718434,-536.266849
7330.463105,-3256.906145,-9104.533087,-536.266849
7330.463422,-3182.885551,-8142.265362,-766.095498
7330.463738,-3478.967927,-8438.347739,-229.828649
7330.464055,-3775.050304,-8956.491898,0.000000
7330.464371,-3775.050304,-8956.491898,0.000000
7330.464687,-3923.091493,-9104.533087,0.000000
7330.465004,-3775.050304,-8586.388927,0.000000
7330.465320,-3775.050304,-8660.409521,-459.657299
7330.465636,-3330.926739,-9030.512492,-842.705048
7330.465953,-3552.988522,-9178.553681,153.219100
7330.466269,-3108.864956,-8364.327145,842.705048
7330.466586,-2960.823768,-7550.100608,306.438199
7330.466902,-3552.988522,-7920.203579,536.266849
7330.467218,-4145.153275,-9326.594869,-689.485948
7330.467535,-4367.215058,-9622.677246,-1378.971896
7330.467851,-4515.256246,-9030.512492,-1532.190996
7330.468167,-4293.194464,-8142.265362,-1225.752797
7330.468484,-3478.967927,-7994.224174,-383.047749
7330.468800,-3849.070898,-8734.430116,536.266849
7330.469117,-4219.173869,-9548.656652,229.828649
7330.469433,-3108.864956,-8734.430116,0.000000
7330.469749,-2368.659014,-8512.368333,0.000000
7330.470066,-3330.926739,-8438.347739,0.000000
7330.470382,-3404.947333,-8660.409521,229.828649
7330.470698,-2960.823768,-9104.533087,0.000000
7330.471015,-3478.967927,-8290.306550,0.000000
7330.471331,-3849.070898,-8734.430116,-1072.533697
7330.471648,-4515.256246,-8364.327145,-689.485948
7330.471964,-4737.318029,-9104.533087,-689.485948
7330.472280,-4589.276840,-9400.615463,-995.924147
7330.472597,-3701.029710,-8882.471304,-1072.533697
7330.472913,-3552.988522,-8734.430116,0.000000
7330.473230,-2886.803174,-8586.388927,229.828649
7330.473546,-2516.700203,-8734.430116,0.000000
7330.473862,-3034.844362,-8364.327145,459.657299
7330.474179,-3330.926739,-8586.388927,459.657299
7330.474495,-3404.947333,-8956.491898,0.000000
7330.474811,-3404.947333,-9474.636058,-766.095498
7330.475128,-3849.070898,-9252.574275,-459.657299
7330.475444,-4145.153275,-8512.368333,-612.876398
7330.475761,-3404.947333,-8586.388927,0.000000
7330.476077,-3923.091493,-8364.327145,0.000000
7330.476393,-4293.194464,-8882.471304,-689.485948
7330.476710,-3849.070898,-8808.450710,-612.876398
7330.477026,-3923.091493,-9326.594869,-459.657299
7330.477342,-3775.050304,-9030.512492,153.219100
7330.477659,-3404.947333,-9400.615463,0.000000
7330.477975,-3478.967927,-9030.512492,842.705048
7330.478292,-3552.988522,-8512.368333,689.485948
7330.478608,-3404.947333,-9030.512492,0.000000
7330.478924,-3256.906145,-8808.450710,0.000000
7330.479241,-3923.091493,-8956.491898,-306.438199
7330.479557,-3923.091493,-8216.285956,0.000000
7330.479873,-3627.009116,-9326.594869,-306.438199
7330.480190,-4219.173869,-8956.491898,76.609550
7330.480506,-3701.029710,-8586.388927,-383.047749
7330.480823,-3552.988522,-8660.409521,0.000000
7330.481139,-3923.091493,-8290.306550,0.000000
7330.481455,-3627.009116,-8808.450710,306.438199
7330.481772,-3775.050304,-8956.491898,383.047749
7330.482088,-2960.823768,-9252.574275,229.828649
7330.482405,-3552.988522,-8734.430116,536.266849
7330.482721,-3182.885551,-8660.409521,842.705048
7330.483037,-3256.906145,-9252.574275,536.266849
7330.483354,-3330.926739,-8512.368333,612.876398
7330.483670,-2812.782580,-9030.512492,0.000000
7330.483986,-3404.947333,-8438.347739,153.219100
7330.484303,-3552.988522,-8808.450710,383.047749
7330.484619,-4367.215058,-8734.430116,229.828649
7330.484936,-3775.050304,-8808.450710,-766.095498
7330.485252,-3404.947333,-9178.553681,-383.047749
7330.485568,-3330.926739,-8956.491898,-229.828649
7330.485885,-3256.906145,-8660.409521,689.485948
7330.486201,-3108.864956,-8660.409521,612.876398
7330.486517,-2516.700203,-8290.306550,919.314598
7330.486834,-2516.700203,-8808.450710,689.485948
7330.487150,-2960.823768,-8808.450710,1149.143247
7330.487467,-3923.091493,-8512.368333,1072.533697
7330.487783,-3849.070898,-8364.327145,-459.657299
7330.488099,-3627.009116,-7994.224174,-536.266849
7330.488416,-4071.132681,-8586.388927,-536.266849
7330.488732,-4589.276840,-8734.430116,-689.485948
7330.489048,-4441.235652,-8660.409521,-919.314598
7330.489365,-4145.153275,-8512.368333,-1302.362347
7330.489681,-3330.926739,-9104.533087,-1072.533697
7330.489998,-2960.823768,-9104.533087,-689.485948
7330.490314,-3552.988522,-9178.553681,-536.266849
7330.490630,-3108.864956,-8438.347739,383.047749
7330.490947,-2664.741391,-8956.491898,689.485948
7330.491263,-2960.823768,-8808.450710,612.876398
7330.491580,-3552.988522,-8660.409521,153.219100
7330.491896,-3404.947333,-8216.285956,-306.438199
7330.492212,-3627.009116,-8882.471304,-383.047749
7330.492529,-4071.132681,-8068.244768,-1608.800546
7330.492845,-4219.173869,-8660.409521,-1608.800546
7330.493161,-4515.256246,-8512.368333,-1072.533697
7330.493478,-4441.235652,-8660.409521,-1378.971896
7330.493794,-4589.276840,-8808.450710,-1378.971896
7330.494111,-4515.256246,-9030.512492,-612.876398
7330.494427,-3997.112087,-8734.430116,-766.095498
7330.494743,-3256.906145,-9104.533087,-689.485948
7330.495060,-3552.988522,-8882.471304,-306.438199
7330.495376,-2886.803174,-9548.656652,-689.485948
7330.495692,-3108.864956,-9252.574275,459.657299
7330.496009,-3256.906145,-9178.553681,0.000000
7330.496325,-3256.906145,-9326.594869,0.000000
7330.496642,-3404.947333,-8734.430116,0.000000
7330.496958,-3627.009116,-9474.636058,-612.876398
7330.497274,-4441.235652,-8882.471304,-689.485948
7330.497591,-4293.194464,-9326.594869,-1072.533697
7330.497907,-4663.297435,-8734.430116,-1225.752797
7330.498223,-4441.235652,-8808.450710,-1149.143247
7330.498540,-4219.173869,-8808.450710,-842.705048
7330.498856,-4071.132681,-8808.450710,-306.438199
7330.499173,-3923.091493,-8808.450710,0.000000
7330.499489,-3108.864956,-9252.574275,-229.828649
7330.499805,-2368.659014,-9326.594869,-766.095498
7330.500122,-2516.700203,-9326.594869,229.828649
7330.500438,-2812.782580,-9178.553681,995.924147
7330.500755,-3034.844362,-9474.636058,1149.143247
7330.501071,-3404.947333,-9104.533087,689.485948
7330.501387,-3256.906145,-9548.656652,0.000000
7330.501704,-3330.926739,-9252.574275,689.485948
7330.502020,-3627.009116,-8956.491898,-229.828649
7330.502336,-3478.967927,-8882.471304,0.000000
7330.502653,-3552.988522,-8882.471304,229.828649
7330.502969,-3775.050304,-8882.471304,229.828649
7330.503286,-3701.029710,-8512.368333,306.438199
7330.503602,-3256.906145,-8734.430116,0.000000
7330.503918,-3182.885551,-8364.327145,766.095498
7330.504235,-3256.906145,-8068.244768,306.438199
7330.504551,-3256.906145,-7994.224174,842.705048
7330.504867,-3775.050304,-8216.285956,306.438199
7330.505184,-3701.029710,-8438.347739,612.876398
7330.505500,-3923.091493,-8512.368333,306.438199
7330.505817,-4145.153275,-8734.430116,229.828649
7330.506133,-4441.235652,-8512.368333,842.705048
7330.506449,-4145.153275,-8364.327145,612.876398
7330.506766,-3997.112087,-8438.347739,766.095498
7330.507082,-4219.173869,-8660.409521,536.266849
7330.507398,-3849.070898,-8438.347739,842.705048
7330.507715,-3923.091493,-8290.306550,919.314598
7330.508031,-3997.112087,-8142.265362,459.657299
7330.508348,-3923.091493,-7994.224174,919.314598
7330.508664,-4219.173869,-7994.224174,306.438199
7330.508980,-3849.070898,-8290.306550,306.438199
7330.509297,-4441.235652,-8216.285956,459.657299
7330.509613,-3182.885551,-8882.471304,153.219100
7330.509930,-2960.823768,-8512.368333,995.924147
7330.510246,-3182.885551,-8438.347739,1991.848295
7330.510562,-3034.844362,-8956.491898,2221.676944
7330.510879,-2738.761985,-9400.615463,2068.457845
7330.511195,-2220.617826,-9548.656652,1225.752797
7330.511511,-2368.659014,-9326.594869,1685.410096
7330.511828,-2886.803174,-9104.533087,2451.505594
7330.512144,-3256.906145,-9104.533087,1302.362347
7330.512461,-3701.029710,-9178.553681,1302.362347
7330.512777,-4219.173869,-9030.512492,689.485948
7330.513093,-4071.132681,-9104.533087,306.438199
7330.513410,-4219.173869,-8438.347739,459.657299
7330.513726,-3701.029710,-8438.347739,383.047749
7330.514042,-3701.029710,-8290.306550,919.314598
7330.514359,-3404.947333,-8734.430116,1608.800546
7330.514675,-2738.761985,-8808.450710,1685.410096
7330.514992,-2960.823768,-8364.327145,2145.067394
7330.515308,-2664.741391,-8808.450710,1608.800546
7330.515624,-2960.823768,-8660.409521,1762.019645
7330.515941,-3404.947333,-8512.368333,1762.019645
7330.516257,-3330.926739,-9104.533087,1608.800546
7330.516574,-4071.132681,-9030.512492,459.657299
7330.516890,-3701.029710,-9400.615463,229.828649
7330.517206,-4071.132681,-8956.491898,459.657299
7330.517523,-3997.112087,-9178.553681,306.438199
7330.517839,-3923.091493,-9104.533087,306.438199
7330.518155,-3256.906145,-9252.574275,842.705048
7330.518472,-3552.988522,-9030.512492,919.314598
7330.518788,-2812.782580,-8808.450710,1225.752797
7330.519105,-2886.803174,-8438.347739,1302.362347
7330.519421,-3182.885551,-8364.327145,1762.019645
7330.519737,-3404.947333,-8586.388927,1072.533697
7330.520054,-3552.988522,-8364.327145,995.924147
7330.520370,-3775.050304,-8956.491898,76.609550
7330.520686,-3775.050304,-8438.347739,0.000000
7330.521003,-3997.112087,-9104.533087,-995.924147
7330.521319,-4589.276840,-8734.430116,-153.219100
7330.521636,-4663.297435,-8512.368333,-153.219100
7330.521952,-3997.112087,-8808.450710,76.609550
7330.522268,-3552.988522,-9104.533087,-536.266849
7330.522585,-3701.029710,-8512.368333,536.266849
7330.522901,-3923.091493,-8808.450710,612.876398
7330.523217,-3256.906145,-8882.471304,842.705048
7330.523534,-2664.741391,-8438.347739,459.657299
7330.523850,-3182.885551,-8586.388927,536.266849
7330.524167,-3849.070898,-8734.430116,306.438199
7330.524483,-4367.215058,-9252.574275,153.219100
7330.524799,-4219.173869,-9474.636058,-306.438199
7330.525116,-3923.091493,-8586.388927,-383.047749
7330.525432,-4145.153275,-8882.471304,-153.219100
7330.525749,-4071.132681,-8956.491898,229.828649
7330.526065,-3849.070898,-8882.471304,0.000000
7330.526381,-3330.926739,-8808.450710,-459.657299
7330.526698,-3108.864956,-8660.409521,76.609550
7330.527014,-3552.988522,-8512.368333,842.705048
7330.527330,-3627.009116,-8586.388927,612.876398
7330.527647,-2812.782580,-9178.553681,459.657299
7330.527963,-2960.823768,-8808.450710,229.828649
7330.528280,-3627.009116,-8660.409521,229.828649
7330.528596,-3923.091493,-9030.512492,0.000000
7330.528912,-3997.112087,-9474.636058,229.828649
7330.529229,-3775.050304,-9696.697840,0.000000
7330.529545,-3849.070898,-9622.677246,306.438199
7330.529861,-3775.050304,-9548.656652,536.266849
7330.530178,-3478.967927,-9696.697840,689.485948
7330.530494,-3108.864956,-9474.636058,995.924147
7330.530811,-2516.700203,-9326.594869,919.314598
7330.531127,-2812.782580,-9178.553681,1455.581446
7330.531443,-3478.967927,-8808.450710,383.047749
7330.531760,-3182.885551,-8956.491898,612.876398
7330.532076,-3552.988522,-8660.409521,383.047749
7330.532392,-3701.029710,-8512.368333,383.047749
7330.532709,-4219.173869,-7846.182985,0.000000
7330.533025,-4441.235652,-8512.368333,-689.485948
7330.533342,-3552.988522,-9030.512492,0.000000
7330.533658,-3478.967927,-8364.327145,612.876398
7330.533974,-3404.947333,-9030.512492,1072.533697
7330.534291,-3997.112087,-8660.409521,1608.800546
7330.534607,-3330.926739,-9326.594869,1455.581446
7330.534924,-3997.112087,-9252.574275,1225.752797
7330.535240,-3404.947333,-9178.553681,536.266849
7330.535556,-3478.967927,-9104.533087,1302.362347
7330.535873,-3849.070898,-8512.368333,1608.800546
7330.536189,-3330.926739,-8808.450710,1378.971896
7330.536505,-3923.091493,-8512.368333,919.314598
7330.536822,-3997.112087,-8364.327145,1072.533697
7330.537138,-4071.132681,-8290.306550,612.876398
7330.537455,-3775.050304,-7772.162391,995.924147
7330.537771,-3552.988522,-7772.162391,1532.190996
7330.538087,-3701.029710,-8068.244768,842.705048
7330.538404,-3478.967927,-7772.162391,1455.581446
7330.538720,-3627.009116,-8068.244768,1455.581446
7330.539036,-3701.029710,-8586.388927,1225.752797
7330.539353,-3478.967927,-8512.368333,1532.190996
7330.539669,-3552.988522,-8660.409521,1149.143247
7330.539986,-3627.009116,-8068.244768,1532.190996
7330.540302,-3701.029710,-8956.491898,1225.752797
7330.540618,-3627.009116,-9548.656652,842.705048
7330.540935,-3997.112087,-8512.368333,689.485948
7330.541251,-3256.906145,-8290.306550,76.609550
7330.541567,-3701.029710,-8438.347739,689.485948
7330.541884,-3923.091493,-9030.512492,919.314598
7330.542200,-3775.050304,-8882.471304,919.314598
7330.542517,-2738.761985,-8882.471304,612.876398
7330.542833,-2590.720797,-7846.182985,689.485948
7330.543149,-3034.844362,-8068.244768,995.924147
7330.543466,-3627.009116,-9400.615463,919.314598
7330.543782,-3701.029710,-9622.677246,919.314598
7330.544099,-3552.988522,-8660.409521,919.314598
7330.544415,-3627.009116,-8364.327145,1149.143247
7330.544731,-3701.029710,-9104.533087,306.438199
7330.545048,-3552.988522,-9696.697840,76.609550
7330.545364,-3849.070898,-8512.368333,-536.266849
7330.545680,-3849.070898,-8586.388927,-153.219100
7330.545997,-4071.132681,-8364.327145,383.047749
7330.546313,-3701.029710,-8734.430116,919.314598
7330.546630,-3849.070898,-9400.615463,1302.362347
7330.546946,-4145.153275,-8882.471304,1532.190996
7330.547262,-3923.091493,-9104.533087,459.657299
7330.547579,-3701.029710,-8956.491898,-459.657299
7330.547895,-3478.967927,-8216.285956,0.000000
7330.548211,-3330.926739,-8290.306550,0.000000
7330.548528,-3404.947333,-8068.244768,76.609550
7330.548844,-3404.947333,-8956.491898,229.828649
7330.549161,-3478.967927,-9178.553681,229.828649
7330.549477,-3849.070898,-9104.533087,766.095498
7330.549793,-4071.132681,-8882.471304,306.438199
7330.550110,-4293.194464,-9252.574275,0.000000
7330.550426,-3701.029710,-9992.780217,-689.485948
7330.550742,-3849.070898,-9548.656652,0.000000
7330.551059,-3701.029710,-9178.553681,229.828649
7330.551375,-3330.926739,-8882.471304,536.266849
7330.551692,-3404.947333,-8734.430116,689.485948
7330.552008,-3552.988522,-9178.553681,76.609550
7330.552324,-3478.967927,-9474.636058,-995.924147
7330.552641,-3478.967927,-8956.491898,-612.876398
7330.552957,-4219.173869,-8660.409521,-536.266849
7330.553274,-3849.070898,-9178.553681,-153.219100
7330.553590,-3627.009116,-8808.450710,383.047749
7330.553907,-3627.009116,-8882.471304,536.266849
7330.554223,-3478.967927,-8882.471304,612.876398
7330.554540,-3775.050304,-9400.615463,1149.143247
7330.554856,-3478.967927,-9474.636058,1455.581446
7330.555172,-3108.864956,-8956.491898,536.266849
7330.555489,-3256.906145,-8290.306550,689.485948
7330.555805,-3701.029710,-8660.409521,0.000000
7330.556122,-3701.029710,-8808.450710,0.000000
7330.556438,-3775.050304,-8660.409521,306.438199
7330.556755,-3701.029710,-8290.306550,-919.314598
7330.557071,-3849.070898,-7772.162391,-306.438199
7330.557387,-4145.153275,-9178.553681,-153.219100
7330.557704,-3849.070898,-9474.636058,-306.438199
7330.558020,-3627.009116,-9474.636058,1455.581446
7330.558337,-3182.885551,-8882.471304,1532.190996
7330.558653,-2738.761985,-8364.327145,1991.848295
7330.558970,-3108.864956,-8586.388927,995.924147
7330.559286,-3182.885551,-9030.512492,842.705048
7330.559603,-3627.009116,-9030.512492,1225.752797
7330.559919,-3627.009116,-9030.512492,306.438199
7330.560235,-3849.070898,-8586.388927,689.485948
7330.560552,-4145.153275,-8512.368333,229.828649
7330.560868,-4145.153275,-8438.347739,0.000000
7330.561185,-4071.132681,-8438.347739,-306.438199
7330.561501,-4145.153275,-8586.388927,76.609550
7330.561818,-3775.050304,-8734.430116,1302.362347
7330.562134,-2664.741391,-8290.306550,1225.752797
7330.562451,-2294.638420,-7772.162391,2374.896044
7330.562767,-2738.761985,-8660.409521,2528.115143
7330.563083,-2886.803174,-9178.553681,2451.505594
7330.563400,-2960.823768,-8956.491898,1455.581446
7330.563716,-3182.885551,-8216.285956,995.924147
7330.564033,-3701.029710,-7920.203579,1072.533697
7330.564349,-4811.338623,-8956.491898,1302.362347
7330.564666,-5033.400406,-8956.491898,153.219100
7330.564982,-4589.276840,-9400.615463,-459.657299
7330.565299,-4663.297435,-8364.327145,-306.438199
7330.565615,-4515.256246,-8956.491898,76.609550
7330.565931,-4293.194464,-9400.615463,766.095498
7330.566248,-2886.803174,-8882.471304,1532.190996
7330.566564,-1924.535449,-8660.409521,1149.143247
7330.566881,-2368.659014,-8216.285956,2757.943793
7330.567197,-2368.659014,-8734.430116,2604.724693
7330.567514,-2738.761985,-9252.574275,2604.724693
7330.567830,-2960.823768,-8956.491898,1838.629195
7330.568146,-3552.988522,-8734.430116,842.705048
7330.568463,-4515.256246,-8660.409521,612.876398
7330.568779,-4515.256246,-9252.574275,0.000000
7330.569096,-4811.338623,-8512.368333,-153.219100
7330.569412,-4737.318029,-8808.450710,76.609550
7330.569729,-4885.359217,-8512.368333,76.609550
7330.570045,-4589.276840,-8956.491898,0.000000
7330.570362,-3997.112087,-9178.553681,766.095498
7330.570678,-3478.967927,-8956.491898,919.314598
7330.570994,-2368.659014,-8586.388927,612.876398
7330.571311,-2368.659014,-8438.347739,1915.238745
7330.571627,-2220.617826,-8882.471304,2221.676944
7330.571944,-2664.741391,-8512.368333,2145.067394
7330.572260,-2960.823768,-8956.491898,1149.143247
7330.572577,-3182.885551,-8512.368333,536.266849
7330.572893,-3997.112087,-9030.512492,-153.219100
7330.573210,-4663.297435,-9104.533087,-306.438199
7330.573526,-4589.276840,-8882.471304,-459.657299
7330.573842,-4515.256246,-8808.450710,-536.266849
7330.574159,-3775.050304,-8660.409521,-536.266849
7330.574475,-4293.194464,-9474.636058,459.657299
7330.574792,-3997.112087,-8586.388927,229.828649
7330.575108,-2738.761985,-8660.409521,612.876398
7330.575425,-2664.741391,-8808.450710,766.095498
7330.575741,-2516.700203,-8660.409521,1302.362347
7330.576058,-2738.761985,-9030.512492,1685.410096
7330.576374,-3478.967927,-8734.430116,919.314598
7330.576690,-3330.926739,-8586.388927,0.000000
7330.577007,-3701.029710,-8882.471304,0.000000
7330.577323,-3923.091493,-9104.533087,-306.438199
7330.577640,-4885.359217,-9030.512492,0.000000
7330.577956,-4589.276840,-9104.533087,-766.095498
7330.578273,-4145.153275,-9178.553681,-459.657299
7330.578589,-3478.967927,-9400.615463,-459.657299
7330.578905,-3034.844362,-8068.244768,689.485948
7330.579222,-2294.638420,-8660.409521,536.266849
7330.579538,-2738.761985,-8216.285956,689.485948
7330.579855,-3627.009116,-8660.409521,0.000000
7330.580171,-3627.009116,-8882.471304,-459.657299
7330.580488,-3552.988522,-9474.636058,0.000000
7330.580804,-4145.153275,-9104.533087,-229.828649
7330.581121,-4219.173869,-9178.553681,689.485948
7330.581437,-3923.091493,-9178.553681,919.314598
7330.581753,-3108.864956,-9400.615463,612.876398
7330.582070,-2886.803174,-8956.491898,1072.533697
7330.582386,-3330.926739,-8882.471304,689.485948
7330.582703,-3627.009116,-9030.512492,1072.533697
7330.583019,-3849.070898,-9104.533087,306.438199
7330.583336,-3627.009116,-8956.491898,153.219100
7330.583652,-4219.173869,-8068.244768,229.828649
7330.583969,-4663.297435,-8660.409521,-536.266849
7330.584285,-3997.112087,-8956.491898,-306.438199
7330.584601,-3997.112087,-8734.430116,0.000000
7330.584918,-3404.947333,-8956.491898,0.000000
7330.585234,-2960.823768,-9178.553681,1302.362347
7330.585551,-2738.761985,-9326.594869,2221.676944
7330.585867,-2590.720797,-9104.533087,2987.772442
7330.586184,-2886.803174,-9326.594869,2068.457845
7330.586500,-3034.844362,-9548.656652,1685.410096
7330.586816,-3923.091493,-9178.553681,1225.752797
7330.587133,-4441.235652,-9326.594869,383.047749
7330.587449,-4515.256246,-8956.491898,0.000000
7330.587766,-4589.276840,-8660.409521,-536.266849
7330.588082,-4515.256246,-8142.265362,0.000000
7330.588399,-4071.132681,-8586.388927,536.266849
7330.588715,-3923.091493,-8142.265362,612.876398
7330.589032,-3627.009116,-8216.285956,766.095498
7330.589348,-3256.906145,-7772.162391,1225.752797
7330.589664,-3034.844362,-8438.347739,1072.533697
7330.589981,-2812.782580,-8068.244768,1991.848295
7330.590297,-2886.803174,-8734.430116,2068.457845
7330.590614,-3182.885551,-8586.388927,2451.505594
7330.590930,-3256.906145,-8808.450710,2374.896044
7330.591247,-3478.967927,-9252.574275,1378.971896
7330.591563,-3923.091493,-9548.656652,919.314598
7330.591880,-4071.132681,-9252.574275,842.705048
7330.592196,-3923.091493,-8660.409521,919.314598
7330.592512,-4219.173869,-8216.285956,919.314598
7330.592829,-4145.153275,-8068.244768,995.924147
7330.593145,-4071.132681,-7698.141797,306.438199
7330.593462,-3627.009116,-7624.121203,383.047749
7330.593778,-3627.009116,-7328.038826,76.609550
7330.594095,-3108.864956,-7994.224174,689.485948
7330.594411,-2886.803174,-7994.224174,919.314598
7330.594728,-2516.700203,-8364.327145,1225.752797
7330.595044,-2368.659014,-8734.430116,1302.362347
7330.595360,-2368.659014,-8882.471304,1608.800546
7330.595677,-2886.803174,-9252.574275,1991.848295
7330.595993,-3330.926739,-8734.430116,919.314598
7330.596310,-3775.050304,-9474.636058,1072.533697
7330.596626,-3775.050304,-9696.697840,0.000000
7330.596943,-3775.050304,-9326.594869,153.219100
7330.597259,-3627.009116,-9326.594869,0.000000
7330.597575,-3256.906145,-8512.368333,229.828649
7330.597892,-3404.947333,-8290.306550,919.314598
7330.598208,-3182.885551,-8438.347739,153.219100
7330.598525,-3404.947333,-8290.306550,0.000000
7330.598841,-4071.132681,-7994.224174,229.828649
7330.599158,-3997.112087,-8956.491898,0.000000
7330.599474,-3775.050304,-8808.450710,306.438199
7330.599791,-3997.112087,-8512.368333,689.485948
7330.600107,-4293.194464,-8956.491898,842.705048
7330.600423,-4441.235652,-9474.636058,459.657299
7330.600740,-4737.318029,-9030.512492,229.828649
7330.601056,-4367.215058,-9474.636058,-383.047749
7330.601373,-4589.276840,-8734.430116,-689.485948
7330.601689,-4885.359217,-8660.409521,-229.828649
7330.602006,-4737.318029,-8660.409521,-229.828649
7330.602322,-4441.235652,-8660.409521,-766.095498
7330.602639,-4145.153275,-8364.327145,-919.314598
7330.602955,-4071.132681,-7920.203579,-1838.629195
7330.603271,-3701.029710,-8660.409521,-995.924147
7330.603588,-3330.926739,-8364.327145,-1302.362347
7330.603904,-3849.070898,-8068.244768,-306.438199
7330.604221,-3552.988522,-8882.471304,-689.485948
7330.604537,-2738.761985,-9252.574275,-995.924147
7330.604854,-2812.782580,-9474.636058,-459.657299
7330.605170,-3108.864956,-9474.636058,-306.438199
7330.605487,-3849.070898,-9178.553681,229.828649
7330.605803,-3923.091493,-9474.636058,-459.657299
7330.606119,-3552.988522,-9326.594869,-995.924147
7330.606436,-3701.029710,-9844.739029,-1915.238745
7330.606752,-3923.091493,-9622.677246,-1532.190996
7330.607069,-3552.988522,-8808.450710,-1378.971896
7330.607385,-3034.844362,-8438.347739,-995.924147
7330.607702,-2812.782580,-8586.388927,-612.876398
7330.608018,-3330.926739,-8808.450710,-766.095498
7330.608334,-3404.947333,-8290.306550,-919.314598
7330.608651,-2664.741391,-8438.347739,-1149.143247
7330.608967,-3108.864956,-8882.471304,-689.485948
7330.609284,-3701.029710,-8956.491898,0.000000
7330.609600,-3849.070898,-9474.636058,229.828649
7330.609917,-3997.112087,-9622.677246,-153.219100
7330.610233,-3552.988522,-9770.718434,-842.705048
7330.610550,-3997.112087,-9252.574275,-689.485948
7330.610866,-4367.215058,-8956.491898,-995.924147
7330.611182,-4293.194464,-8364.327145,-612.876398
7330.611499,-3923.091493,-8882.471304,-1072.533697
7330.611815,-3923.091493,-8956.491898,-1225.752797
7330.612132,-4071.132681,-8882.471304,-919.314598
7330.612448,-3627.009116,-8956.491898,-919.314598
7330.612765,-3108.864956,-8512.368333,612.876398
7330.613081,-2886.803174,-8438.347739,0.000000
7330.613398,-2738.761985,-8734.430116,842.705048
7330.613714,-3108.864956,-9030.512492,766.095498
7330.614030,-3034.844362,-9104.533087,919.314598
7330.614347,-2960.823768,-9400.615463,383.047749
7330.614663,-3552.988522,-9178.553681,536.266849
7330.614980,-3997.112087,-8882.471304,1072.533697
7330.615296,-4293.194464,-8882.471304,1072.533697
7330.615613,-4145.153275,-8734.430116,229.828649
7330.615929,-4145.153275,-8586.388927,-689.485948
7330.616245,-4219.173869,-8512.368333,-459.657299
7330.616562,-4293.194464,-7920.203579,229.828649
7330.616878,-4663.297435,-8068.244768,306.438199
7330.617195,-4737.318029,-7698.141797,0.000000
7330.617511,-3034.844362,-8882.471304,-383.047749
7330.617828,-3256.906145,-8808.450710,229.828649
7330.618144,-3108.864956,-8586.388927,689.485948
7330.618461,-3849.070898,-8364.327145,1915.238745
7330.618777,-3256.906145,-8512.368333,1685.410096
7330.619093,-3256.906145,-8808.450710,1302.362347
7330.619410,-2886.803174,-9400.615463,229.828649
7330.619726,-2738.761985,-8734.430116,536.266849
7330.620043,-3034.844362,-8512.368333,536.266849
7330.620359,-3330.926739,-7550.100608,1838.629195
7330.620676,-3775.050304,-7254.018232,842.705048
7330.620992,-4145.153275,-8290.306550,0.000000
7330.621309,-4145.153275,-8734.430116,-842.705048
7330.621625,-3923.091493,-8808.450710,-1149.143247
7330.621941,-3849.070898,-8512.368333,-612.876398
7330.622258,-3849.070898,-8438.347739,383.047749
7330.622574,-3256.906145,-9400.615463,1225.752797
7330.622891,-2664.741391,-9252.574275,1149.143247
7330.623207,-2368.659014,-9696.697840,919.314598
7330.623524,-2072.576638,-9400.615463,1225.752797
7330.623840,-2146.597232,-9104.533087,1149.143247
7330.624157,-2516.700203,-8734.430116,1532.190996
7330.624473,-3478.967927,-8808.450710,1378.971896
7330.624789,-3108.864956,-8882.471304,0.000000
7330.625106,-3923.091493,-8586.388927,-919.314598
7330.625422,-3923.091493,-8438.347739,-1532.190996
7330.625739,-4293.194464,-7920.203579,-1685.410096
7330.626055,-4071.132681,-7920.203579,-766.095498
7330.626372,-4441.235652,-7920.203579,-383.047749
7330.626688,-3923.091493,-8660.409521,-229.828649
7330.627004,-3552.988522,-9252.574275,-536.266849
7330.627321,-2738.761985,-8956.491898,0.000000
7330.627637,-3404.947333,-9252.574275,612.876398
7330.627954,-3478.967927,-9104.533087,612.876398
7330.628270,-3256.906145,-9696.697840,919.314598
7330.628587,-3923.091493,-9696.697840,-153.219100
7330.628903,-3256.906145,-9548.656652,-766.095498
7330.629220,-4145.153275,-9474.636058,-459.657299
7330.629536,-4071.132681,-8364.327145,-842.705048
7330.629852,-3923.091493,-8586.388927,-612.876398
7330.630169,-4515.256246,-8586.388927,-689.485948
7330.630485,-4515.256246,-8364.327145,-1685.410096
7330.630802,-4515.256246,-8734.430116,-1838.629195
7330.631118,-4441.235652,-8364.327145,-1378.971896
7330.631435,-4441.235652,-8660.409521,-689.485948
7330.631751,-4145.153275,-8438.347739,-1072.533697
7330.632068,-3627.009116,-9178.553681,-919.314598
7330.632384,-3552.988522,-9696.697840,-383.047749
7330.632700,-3849.070898,-9474.636058,-995.924147
7330.633017,-3108.864956,-9696.697840,-689.485948
7330.633333,-3552.988522,-9400.615463,-459.657299
7330.633650,-4219.173869,-9252.574275,0.000000
7330.633966,-3849.070898,-9622.677246,-612.876398
7330.634283,-3923.091493,-9474.636058,-995.924147
7330.634599,-3775.050304,-8364.327145,-1685.410096
7330.634916,-3404.947333,-8586.388927,-1072.533697
7330.635232,-4219.173869,-9104.533087,-459.657299
7330.635548,-4293.194464,-8808.450710,-459.657299
7330.635865,-3478.967927,-8216.285956,-536.266849
7330.636181,-2812.782580,-8216.285956,-995.924147
7330.636498,-3256.906145,-8734.430116,-306.438199
7330.636814,-3182.885551,-9474.636058,0.000000
7330.637131,-3330.926739,-9696.697840,536.266849
7330.637447,-3478.967927,-8882.471304,766.095498
7330.637763,-3182.885551,-8438.347739,229.828649
7330.638080,-3552.988522,-9400.615463,0.000000
7330.638396,-3478.967927,-9548.656652,-459.657299
7330.638713,-3404.947333,-9252.574275,-459.657299
7330.639029,-2886.803174,-8438.347739,-383.047749
7330.639346,-3108.864956,-8364.327145,1991.848295
7330.639662,-3849.070898,-8660.409521,1455.581446
7330.639979,-3478.967927,-8808.450710,689.485948
7330.640295,-3627.009116,-9030.512492,-153.219100
7330.640611,-3330.926739,-8438.347739,-919.314598
7330.640928,-3330.926739,-8216.285956,-612.876398
7330.641244,-3627.009116,-8142.265362,383.047749
7330.641561,-3701.029710,-7698.141797,689.485948
7330.641877,-3256.906145,-8290.306550,1225.752797
7330.642194,-3330.926739,-8438.347739,459.657299
7330.642510,-3552.988522,-8808.450710,229.828649
7330.642827,-3849.070898,-8956.491898,229.828649
7330.643143,-4145.153275,-9030.512492,919.314598
7330.643459,-4219.173869,-9252.574275,1072.533697
7330.643776,-3627.009116,-8808.450710,1608.800546
7330.644092,-3849.070898,-8956.491898,919.314598
7330.644409,-3701.029710,-8512.368333,1302.362347
7330.644725,-3775.050304,-8438.347739,153.219100
7330.645042,-3330.926739,-8660.409521,0.000000
7330.645358,-3552.988522,-8660.409521,-76.609550
7330.645675,-3108.864956,-8068.244768,229.828649
7330.645991,-3256.906145,-7920.203579,1302.362347
7330.646307,-3182.885551,-7328.038826,1149.143247
7330.646624,-3552.988522,-7476.080014,919.314598
7330.646940,-3404.947333,-7920.203579,0.000000
7330.647257,-3923.091493,-8216.285956,0.000000
7330.647573,-3923.091493,-8956.491898,0.000000
7330.647890,-3923.091493,-8882.471304,842.705048
7330.648206,-3849.070898,-9400.615463,995.924147
7330.648522,-3923.091493,-8734.430116,1455.581446
7330.648839,-3552.988522,-9696.697840,1225.752797
7330.649155,-4293.194464,-9770.718434,919.314598
7330.649472,-3775.050304,-9918.759623,-459.657299
7330.649788,-3627.009116,-9104.533087,-306.438199
7330.650105,-3404.947333,-8734.430116,-229.828649
7330.650421,-3108.864956,-8438.347739,0.000000
7330.650738,-2516.700203,-7698.141797,306.438199
7330.651054,-2738.761985,-7550.100608,-536.266849
7330.651370,-3182.885551,-7698.141797,-306.438199
7330.651687,-4071.132681,-8068.244768,-919.314598
7330.652003,-3701.029710,-8808.450710,-383.047749
7330.652320,-3849.070898,-8956.491898,153.219100
7330.652636,-3552.988522,-8734.430116,229.828649
7330.652953,-3404.947333,-9178.553681,459.657299
7330.653269,-3849.070898,-9548.656652,306.438199
7330.653585,-3701.029710,-9474.636058,229.828649
7330.653902,-3478.967927,-9548.656652,-689.485948
7330.654218,-3478.967927,-9474.636058,-612.876398
7330.654535,-3627.009116,-9252.574275,-153.219100
7330.654851,-3849.070898,-9030.512492,-536.266849
7330.655167,-4071.132681,-9474.636058,-1225.752797
7330.655484,-4589.276840,-9326.594869,-1608.800546
7330.655800,-4145.153275,-8734.430116,-1838.629195
7330.656117,-3552.988522,-7994.224174,-1608.800546
7330.656433,-3108.864956,-8068.244768,-842.705048
7330.656749,-3108.864956,-8586.388927,76.609550
7330.657066,-2960.823768,-9252.574275,383.047749
7330.657382,-2886.803174,-9030.512492,383.047749
7330.657698,-3108.864956,-8808.450710,0.000000
7330.658015,-3701.029710,-8956.491898,-153.219100
7330.658331,-4071.132681,-9918.759623,-1302.362347
7330.658648,-4515.256246,-9844.739029,-1532.190996
7330.658964,-4589.276840,-8882.471304,-1762.019645
7330.659280,-4811.338623,-8586.388927,-1149.143247
7330.659597,-4737.318029,-8734.430116,-1378.971896
7330.659913,-4071.132681,-8882.471304,-1225.752797
7330.660230,-3849.070898,-8068.244768,-1608.800546
7330.660546,-3256.906145,-7920.203579,-1225.752797
7330.660862,-2812.782580,-8216.285956,-383.047749
7330.661179,-3034.844362,-8216.285956,-229.828649
7330.661495,-3404.947333,-8882.471304,919.314598
7330.661811,-3627.009116,-8734.430116,842.705048
7330.662128,-3552.988522,-9400.615463,-153.219100
7330.662444,-4145.153275,-9400.615463,0.000000
7330.662761,-4293.194464,-9474.636058,-1532.190996
7330.663077,-3627.009116,-9474.636058,-919.314598
7330.663393,-4441.235652,-8882.471304,-612.876398
7330.663710,-4071.132681,-9030.512492,-842.705048
7330.664026,-4145.153275,-8882.471304,-383.047749
7330.664343,-4071.132681,-8956.491898,-536.266849
7330.664659,-3552.988522,-8142.265362,-383.047749
7330.664975,-3256.906145,-8216.285956,-842.705048
7330.665292,-2664.741391,-7920.203579,-383.047749
7330.665608,-2442.679609,-7920.203579,612.876398
7330.665924,-2886.803174,-8512.368333,1532.190996
7330.666241,-2812.782580,-8364.327145,612.876398
7330.666557,-2812.782580,-9030.512492,153.219100
7330.666874,-3552.988522,-9178.553681,76.609550
7330.667190,-3997.112087,-9474.636058,689.485948
7330.667506,-4589.276840,-9400.615463,0.000000
7330.667823,-4367.215058,-9104.533087,-153.219100
7330.668139,-4219.173869,-10140.821405,-1072.533697
7330.668456,-4811.338623,-8882.471304,0.000000
7330.668772,-3701.029710,-8956.491898,0.000000
7330.669088,-3256.906145,-8364.327145,459.657299
7330.669405,-2368.659014,-8364.327145,536.266849
7330.669721,-2294.638420,-8660.409521,995.924147
7330.670037,-1924.535449,-7920.203579,1225.752797
7330.670354,-2146.597232,-8438.347739,1838.629195
7330.670670,-2590.720797,-7994.224174,766.095498
7330.670987,-2516.700203,-8882.471304,689.485948
7330.671303,-3775.050304,-9178.553681,612.876398
7330.671619,-4441.235652,-9252.574275,459.657299
7330.671936,-4737.318029,-8882.471304,229.828649
7330.672252,-4589.276840,-8956.491898,-383.047749
7330.672569,-3478.967927,-9030.512492,-153.219100
7330.672885,-3997.112087,-8438.347739,76.609550
7330.673201,-3701.029710,-9104.533087,689.485948
7330.673518,-3701.029710,-8142.265362,1455.581446
7330.673834,-3849.070898,-8142.265362,995.924147
7330.674150,-3627.009116,-8142.265362,0.000000
7330.674467,-4071.132681,-7994.224174,-306.438199
7330.674783,-3849.070898,-8290.306550,-842.705048
7330.675100,-2812.782580,-8068.244768,-612.876398
7330.675416,-3108.864956,-8068.244768,459.657299
7330.675732,-2812.782580,-8438.347739,919.314598
7330.676049,-3330.926739,-8734.430116,689.485948
7330.676365,-3701.029710,-9252.574275,536.266849
7330.676682,-3330.926739,-9918.759623,-919.314598
7330.676998,-3478.967927,-9474.636058,-766.095498
7330.677314,-3627.009116,-8808.450710,-306.438199
7330.677631,-4219.173869,-9104.533087,0.000000
7330.677947,-3627.009116,-8956.491898,459.657299
7330.678263,-3478.967927,-9030.512492,0.000000
7330.678580,-3404.947333,-8586.388927,-459.657299
7330.678896,-3330.926739,-8290.306550,-536.266849
7330.679213,-3330.926739,-7994.224174,153.219100
7330.679529,-3923.091493,-7994.224174,-229.828649
7330.679845,-3923.091493,-7920.203579,-153.219100
7330.680162,-3108.864956,-8882.471304,-842.705048
7330.680478,-4219.173869,-8808.450710,-612.876398
7330.680795,-4737.318029,-8808.450710,-153.219100
7330.681111,-4589.276840,-8956.491898,-1302.362347
7330.681427,-4293.194464,-9400.615463,-995.924147
7330.681744,-4219.173869,-9252.574275,-1302.362347
7330.682060,-4219.173869,-9474.636058,-766.095498
7330.682376,-3849.070898,-9104.533087,-1378.971896
7330.682693,-3108.864956,-9474.636058,-689.485948
7330.683009,-3256.906145,-9178.553681,0.000000
7330.683326,-3182.885551,-9030.512492,76.609550
7330.683642,-2960.823768,-8882.471304,153.219100
7330.683958,-3182.885551,-8512.368333,-153.219100
7330.684275,-3256.906145,-8512.368333,-766.095498
7330.684591,-3404.947333,-8068.244768,-919.314598
7330.684908,-3478.967927,-8216.285956,-766.095498
7330.685224,-3997.112087,-8882.471304,-689.485948
7330.685540,-3923.091493,-8956.491898,-536.266849
7330.685857,-4367.215058,-9178.553681,-689.485948
7330.686173,-4737.318029,-9030.512492,-766.095498
7330.686489,-4515.256246,-9400.615463,-1302.362347
7330.686806,-4293.194464,-9252.574275,-1532.190996
7330.687122,-3627.009116,-9770.718434,-1149.143247
7330.687439,-2738.761985,-9548.656652,0.000000
7330.687755,-2664.741391,-9548.656652,383.047749
7330.688071,-2368.659014,-8956.491898,1072.533697
7330.688388,-2220.617826,-9104.533087,689.485948
7330.688704,-2516.700203,-9104.533087,689.485948
7330.689021,-2220.617826,-9178.553681,76.609550
7330.689337,-2960.823768,-8808.450710,-919.314598
7330.689653,-2812.782580,-8882.471304,306.438199
7330.689970,-3627.009116,-8808.450710,229.828649
7330.690286,-3997.112087,-8512.368333,766.095498
7330.690602,-4293.194464,-8882.471304,153.219100
7330.690919,-4219.173869,-9178.553681,-153.219100
7330.691235,-3997.112087,-8808.450710,-612.876398
7330.691552,-3849.070898,-8660.409521,-766.095498
7330.691868,-4071.132681,-8068.244768,459.657299
7330.692184,-4441.235652,-8068.244768,1072.533697
7330.692501,-4145.153275,-8364.327145,842.705048
7330.692817,-3849.070898,-8734.430116,459.657299
7330.693134,-4293.194464,-8290.306550,689.485948
7330.693450,-4219.173869,-8068.244768,383.047749
7330.693766,-4367.215058,-8068.244768,459.657299
7330.694083,-3997.112087,-8808.450710,306.438199
7330.694399,-4441.235652,-8734.430116,383.047749
7330.694715,-4515.256246,-8956.491898,459.657299
7330.695032,-4367.215058,-8808.450710,766.095498
7330.695348,-3923.091493,-8734.430116,766.095498
7330.695665,-3849.070898,-8586.388927,1302.362347
7330.695981,-3775.050304,-9030.512492,1149.143247
7330.696297,-3997.112087,-8956.491898,1072.533697
7330.696614,-2590.720797,-8882.471304,612.876398
7330.696930,-2664.741391,-8882.471304,842.705048
7330.697247,-2442.679609,-8438.347739,1455.581446
7330.697563,-3034.844362,-8142.265362,2221.676944
7330.697879,-2738.761985,-8586.388927,1838.629195
7330.698196,-2960.823768,-8956.491898,842.705048
7330.698512,-2590.720797,-8882.471304,612.876398
7330.698828,-2960.823768,-8586.388927,1455.581446
7330.699145,-3775.050304,-8808.450710,2221.676944
7330.699461,-3182.885551,-8956.491898,2221.676944
7330.699778,-3849.070898,-9178.553681,2068.457845
7330.700094,-3775.050304,-9548.656652,1455.581446
7330.700410,-3849.070898,-9474.636058,1532.190996
7330.700727,-3775.050304,-8956.491898,1072.533697
7330.701043,-3552.988522,-8882.471304,1762.019645
7330.701360,-3627.009116,-8364.327145,1838.629195
7330.701676,-3627.009116,-8068.244768,2068.457845
7330.701992,-3256.906145,-8586.388927,1378.971896
7330.702309,-2960.823768,-8438.347739,1378.971896
7330.702625,-2886.803174,-8068.244768,1302.362347
7330.702941,-2590.720797,-8290.306550,1378.971896
7330.703258,-2886.803174,-8068.244768,1915.238745
7330.703574,-2664.741391,-8586.388927,1762.019645
7330.703891,-3108.864956,-8142.265362,995.924147
7330.704207,-3552.988522,-8734.430116,842.705048
7330.704523,-3701.029710,-8734.430116,1072.533697
7330.704840,-4367.215058,-9030.512492,995.924147
7330.705156,-4071.132681,-9474.636058,459.657299
7330.705473,-4441.235652,-9474.636058,919.314598
7330.705789,-3108.864956,-9104.533087,536.266849
7330.706105,-3552.988522,-8734.430116,459.657299
7330.706422,-3552.988522,-8586.388927,1378.971896
7330.706738,-3775.050304,-8882.471304,1302.362347
7330.707054,-3627.009116,-8660.409521,612.876398
7330.707371,-3256.906145,-8438.347739,612.876398
7330.707687,-3701.029710,-8364.327145,459.657299
7330.708004,-3627.009116,-7994.224174,919.314598
7330.708320,-3701.029710,-8512.368333,689.485948
7330.708636,-3701.029710,-8882.471304,0.000000
7330.708953,-3849.070898,-8364.327145,-306.438199
7330.709269,-4737.318029,-8438.347739,-229.828649
7330.709586,-4515.256246,-9474.636058,-842.705048
7330.709902,-4515.256246,-9326.594869,-612.876398
7330.710218,-3849.070898,-9104.533087,-612.876398
7330.710535,-4441.235652,-8364.327145,383.047749
7330.710851,-5033.400406,-8586.388927,995.924147
7330.711167,-3997.112087,-9474.636058,0.000000
7330.711484,-3478.967927,-9400.615463,-153.219100
7330.711800,-3478.967927,-8660.409521,-229.828649
7330.712117,-3701.029710,-8290.306550,383.047749
7330.712433,-3849.070898,-8660.409521,612.876398
7330.712749,-3849.070898,-8586.388927,-306.438199
7330.713066,-4145.153275,-8586.388927,-995.924147
7330.713382,-4367.215058,-8216.285956,-1149.143247
7330.713699,-4145.153275,-8882.471304,-995.924147
7330.714015,-3775.050304,-8808.450710,-536.266849
7330.714331,-3108.864956,-9178.553681,76.609550
7330.714648,-3330.926739,-9474.636058,536.266849
7330.714964,-3256.906145,-9400.615463,1378.971896
7330.715280,-2220.617826,-9770.718434,689.485948
7330.715597,-2368.659014,-9548.656652,1225.752797
7330.715913,-2590.720797,-9474.636058,919.314598
7330.716230,-3256.906145,-8882.471304,1608.800546
7330.716546,-2886.803174,-9474.636058,689.485948
7330.716862,-3108.864956,-9104.533087,383.047749
7330.717179,-3552.988522,-9178.553681,0.000000
7330.717495,-4737.318029,-8586.388927,536.266849
7330.717812,-4441.235652,-8586.388927,-459.657299
7330.718128,-4071.132681,-8882.471304,0.000000
7330.718444,-4071.132681,-8438.347739,-383.047749
7330.718761,-3627.009116,-9104.533087,153.219100
7330.719077,-3701.029710,-8290.306550,842.705048
7330.719393,-2960.823768,-8586.388927,1149.143247
7330.719710,-2886.803174,-8660.409521,1149.143247
7330.720026,-2738.761985,-8734.430116,1532.190996
7330.720343,-2590.720797,-8882.471304,2221.676944
7330.720659,-2960.823768,-8364.327145,1378.971896
7330.720975,-3256.906145,-9104.533087,1685.410096
7330.721292,-4219.173869,-9104.533087,1455.581446
7330.721608,-3997.112087,-8660.409521,919.314598
7330.721925,-4515.256246,-8882.471304,689.485948
7330.722241,-4737.318029,-7920.203579,536.266849
7330.722557,-4441.235652,-8956.491898,229.828649
7330.722874,-4145.153275,-8660.409521,536.266849
7330.723190,-3849.070898,-8660.409521,689.485948
7330.723506,-4145.153275,-8438.347739,842.705048
7330.723823,-3997.112087,-8290.306550,1149.143247
7330.724139,-3478.967927,-9030.512492,1762.019645
7330.724456,-2960.823768,-8660.409521,1838.629195
7330.724772,-2294.638420,-8142.265362,1762.019645
7330.725088,-3182.885551,-7846.182985,3064.381992
7330.725405,-3256.906145,-8586.388927,2068.457845
7330.725721,-3256.906145,-8660.409521,1685.410096
7330.726038,-3552.988522,-8512.368333,842.705048
7330.726354,-4071.132681,-7920.203579,229.828649
7330.726670,-4515.256246,-8068.244768,383.047749
7330.726987,-4515.256246,-9030.512492,842.705048
7330.727303,-3701.029710,-8734.430116,919.314598
7330.727619,-3552.988522,-7994.224174,459.657299
7330.727936,-3478.967927,-8438.347739,919.314598
7330.728252,-3849.070898,-8882.471304,1302.362347
7330.728569,-3404.947333,-9548.656652,1072.533697
7330.728885,-2960.823768,-8586.388927,1685.410096
7330.729201,-2146.597232,-8364.327145,1915.238745
7330.729518,-2738.761985,-7624.121203,1762.019645
7330.729834,-3034.844362,-9178.553681,1455.581446
7330.730151,-3182.885551,-9918.759623,306.438199
7330.730467,-3478.967927,-8808.450710,383.047749
7330.730783,-3775.050304,-8290.306550,1072.533697
7330.731100,-3627.009116,-8882.471304,1455.581446
7330.731416,-3701.029710,-9400.615463,995.924147
7330.731732,-3701.029710,-9178.553681,0.000000
7330.732049,-3775.050304,-8068.244768,-612.876398
7330.732365,-3701.029710,-8512.368333,-229.828649
7330.732682,-3701.029710,-8808.450710,153.219100
7330.732998,-3701.029710,-9474.636058,536.266849
7330.733314,-3627.009116,-8882.471304,1685.410096
7330.733631,-3404.947333,-9030.512492,995.924147
7330.733947,-3478.967927,-9474.636058,306.438199
7330.734264,-3923.091493,-9400.615463,459.657299
7330.734580,-3478.967927,-9104.533087,153.219100
7330.734896,-3256.906145,-9030.512492,76.609550
7330.735213,-3256.906145,-8586.388927,536.266849
7330.735529,-3701.029710,-9252.574275,536.266849
7330.735845,-3997.112087,-8956.491898,229.828649
7330.736162,-4663.297435,-9252.574275,-229.828649
7330.736478,-4663.297435,-8438.347739,-1072.533697
7330.736795,-3923.091493,-8438.347739,-1302.362347
7330.737111,-4737.318029,-8956.491898,-766.095498
7330.737427,-4145.153275,-8882.471304,0.000000
7330.737744,-3478.967927,-8586.388927,766.095498
7330.738060,-3182.885551,-8808.450710,995.924147
7330.738377,-2886.803174,-9030.512492,1532.190996
7330.738693,-2738.761985,-9104.533087,766.095498
7330.739009,-3108.864956,-8734.430116,76.609550
7330.739326,-3478.967927,-9326.594869,-995.924147
7330.739642,-3552.988522,-8882.471304,-229.828649
7330.739958,-4145.153275,-9030.512492,-306.438199
7330.740275,-4737.318029,-8956.491898,0.000000
7330.740591,-4811.338623,-8734.430116,-459.657299
7330.740908,-4515.256246,-9030.512492,-1378.971896
7330.741224,-4219.173869,-9252.574275,-1532.190996
7330.741540,-3923.091493,-8882.471304,-536.266849
7330.741857,-3552.988522,-8438.347739,536.266849
7330.742173,-3034.844362,-9104.533087,1838.629195
7330.742490,-3182.885551,-9252.574275,2298.286494
7330.742806,-2886.803174,-9030.512492,2221.676944
7330.743122,-3108.864956,-8660.409521,1302.362347
7330.743439,-3108.864956,-8438.347739,383.047749
7330.743755,-3404.947333,-8586.388927,-383.047749
7330.744071,-3701.029710,-8586.388927,-1378.971896
7330.744388,-4071.132681,-8142.265362,-766.095498
7330.744704,-4737.318029,-8364.327145,536.266849
7330.745021,-4367.215058,-8808.450710,766.095498
7330.745337,-3849.070898,-8956.491898,0.000000
7330.745653,-3627.009116,-9030.512492,76.609550
7330.745970,-3330.926739,-9104.533087,229.828649
7330.746286,-3552.988522,-9696.697840,1685.410096
7330.746603,-2960.823768,-9030.512492,2145.067394
7330.746919,-2738.761985,-8586.388927,2528.115143
7330.747235,-2442.679609,-8808.450710,2451.505594
7330.747552,-3330.926739,-9030.512492,1991.848295
7330.747868,-3552.988522,-9252.574275,1149.143247
7330.748184,-4219.173869,-8956.491898,306.438199
7330.748501,-3701.029710,-7550.100608,-306.438199
7330.748817,-4071.132681,-7772.162391,0.000000
7330.749134,-4441.235652,-8586.388927,689.485948
7330.749450,-4293.194464,-9104.533087,1378.971896
7330.749766,-3404.947333,-8808.450710,995.924147
7330.750083,-2738.761985,-7402.059420,1302.362347
7330.750399,-3182.885551,-8512.368333,1378.971896
7330.750716,-3404.947333,-9178.553681,1915.238745
7330.751032,-2886.803174,-8956.491898,2068.457845
7330.751348,-2368.659014,-8808.450710,2528.115143
7330.751665,-3478.967927,-8438.347739,2451.505594
7330.751981,-3627.009116,-8808.450710,2528.115143
7330.752297,-4885.359217,-9178.553681,1685.410096
7330.752614,-4811.338623,-8956.491898,766.095498
7330.752930,-4441.235652,-8216.285956,-919.314598
7330.753247,-4219.173869,-8364.327145,-612.876398
7330.753563,-4441.235652,-7846.182985,229.828649
7330.753879,-3701.029710,-8216.285956,383.047749
7330.754196,-3182.885551,-8068.244768,1838.629195
7330.754512,-3108.864956,-8216.285956,1685.410096
7330.754825,-3034.844362,-8660.409521,1378.971896
7330.755142,-3034.844362,-9326.594869,1532.190996
7330.755458,-2960.823768,-9326.594869,1838.629195
7330.755774,-2590.720797,-8660.409521,1838.629195
7330.756091,-2738.761985,-8882.471304,1455.581446
7330.756407,-3923.091493,-9030.512492,1915.238745
7330.756724,-4071.132681,-8956.491898,1608.800546
7330.757040,-4071.132681,-9104.533087,459.657299
7330.757356,-4145.153275,-8734.430116,-229.828649
7330.757673,-4219.173869,-8290.306550,76.609550
7330.757989,-4959.379811,-8438.347739,229.828649
7330.758305,-4367.215058,-8660.409521,153.219100
7330.758622,-3330.926739,-8438.347739,689.485948
7330.758938,-3108.864956,-7994.224174,842.705048
7330.759255,-2886.803174,-8512.368333,1302.362347
7330.759571,-3108.864956,-8586.388927,1302.362347
7330.759887,-2664.741391,-8142.265362,1302.362347
7330.760204,-2590.720797,-9474.636058,842.705048
7330.760520,-3330.926739,-8882.471304,1225.752797
7330.760837,-3256.906145,-9252.574275,689.485948
7330.761153,-4145.153275,-8956.491898,1149.143247
7330.761469,-4071.132681,-9178.553681,766.095498
7330.761786,-4219.173869,-9474.636058,0.000000
7330.762102,-4145.153275,-8512.368333,-306.438199
7330.762419,-3701.029710,-9178.553681,-919.314598
7330.762735,-3775.050304,-8364.327145,-995.924147
7330.763051,-2738.761985,-7846.182985,-536.266849
7330.763368,-3478.967927,-8512.368333,153.219100
7330.763684,-3330.926739,-8216.285956,919.314598
7330.764001,-3552.988522,-8956.491898,306.438199
7330.764317,-3849.070898,-9548.656652,153.219100
7330.764633,-4071.132681,-9992.780217,153.219100
7330.764950,-2886.803174,-9770.718434,842.705048
7330.765266,-3182.885551,-8956.491898,766.095498
7330.765582,-3182.885551,-8586.388927,2374.896044
7330.765899,-3849.070898,-8734.430116,842.705048
7330.766215,-3849.070898,-9030.512492,-229.828649
7330.766532,-4367.215058,-9178.553681,-1302.362347
7330.766848,-4737.318029,-8364.327145,-1915.238745
7330.767164,-4737.318029,-8216.285956,-1072.533697
7330.767481,-5033.400406,-8734.430116,-1149.143247
7330.767797,-4071.132681,-8808.450710,-229.828649
7330.768114,-3552.988522,-8808.450710,0.000000
7330.768430,-3627.009116,-8660.409521,766.095498
7330.768746,-2886.803174,-8956.491898,1072.533697
7330.769063,-2368.659014,-9326.594869,1685.410096
7330.769379,-2442.679609,-9548.656652,2068.457845
7330.769696,-2886.803174,-9474.636058,2834.553343
7330.770012,-3627.009116,-9252.574275,2528.115143
7330.770328,-3997.112087,-9400.615463,1915.238745
7330.770645,-4071.132681,-9474.636058,536.266849
7330.770961,-5033.400406,-8808.450710,-459.657299
7330.771278,-5107.421000,-8512.368333,-689.485948
7330.771594,-5181.441594,-8438.347739,-689.485948
7330.771910,-4589.276840,-8142.265362,-383.047749
7330.772227,-3330.926739,-8142.265362,0.000000
7330.772543,-2886.803174,-8068.244768,1532.190996
7330.772860,-2368.659014,-7624.121203,1455.581446
7330.773176,-2516.700203,-7920.203579,2145.067394
7330.773492,-2294.638420,-8586.388927,1762.019645
7330.773809,-2368.659014,-9178.553681,1838.629195
7330.774125,-2738.761985,-9474.636058,1608.800546
7330.774441,-3330.926739,-9696.697840,2834.553343
7330.774758,-3997.112087,-9622.677246,2451.505594
7330.775074,-4145.153275,-9252.574275,1838.629195
7330.775391,-3997.112087,-9104.533087,1225.752797
7330.775707,-3923.091493,-9326.594869,459.657299
7330.776023,-3923.091493,-8734.430116,536.266849
7330.776340,-3997.112087,-8068.244768,306.438199
7330.776656,-4293.194464,-7550.100608,1072.533697
7330.776973,-4071.132681,-7624.121203,1225.752797
7330.777289,-3034.844362,-7698.141797,459.657299
7330.777605,-2664.741391,-7254.018232,459.657299
7330.777922,-2590.720797,-7624.121203,612.876398
7330.778238,-2664.741391,-7698.141797,1608.800546
7330.778555,-2812.782580,-8290.306550,1915.238745
7330.778871,-2368.659014,-9030.512492,1378.971896
7330.779187,-2516.700203,-8882.471304,1762.019645
7330.779504,-3034.844362,-9696.697840,1455.581446
7330.779820,-3330.926739,-10140.821405,766.095498
7330.780137,-3108.864956,-9770.718434,766.095498
7330.780453,-3775.050304,-9622.677246,536.266849
7330.780769,-4219.173869,-9548.656652,612.876398
7330.781086,-4071.132681,-9474.636058,229.828649
7330.781402,-2664.741391,-9104.533087,0.000000
7330.781718,-1924.535449,-8734.430116,689.485948
7330.782035,-2664.741391,-7772.162391,1532.190996
7330.782351,-3182.885551,-7550.100608,1762.019645
7330.782668,-3182.885551,-7846.182985,1149.143247
7330.782984,-3330.926739,-8586.388927,-612.876398
7330.783300,-4293.194464,-8068.244768,-229.828649
7330.783617,-4293.194464,-8660.409521,0.000000
7330.783933,-4737.318029,-8438.347739,766.095498
7330.784250,-4293.194464,-8660.409521,766.095498
7330.784566,-5181.441594,-9474.636058,383.047749
7330.784882,-5551.544565,-9696.697840,-306.438199
7330.785199,-5033.400406,-9252.574275,-612.876398
7330.785515,-4145.153275,-9178.553681,-1149.143247
7330.785832,-3849.070898,-8956.491898,0.000000
7330.786148,-4441.235652,-8364.327145,919.314598
7330.786464,-4071.132681,-7846.182985,536.266849
7330.786781,-3330.926739,-7994.224174,-383.047749
7330.787097,-3849.070898,-8068.244768,-1838.629195
7330.787414,-3923.091493,-8660.409521,-1225.752797
7330.787730,-4441.235652,-7994.224174,-1225.752797
7330.788046,-3923.091493,-8290.306550,-1302.362347
7330.788363,-3404.947333,-8734.430116,-1532.190996
7330.788679,-3404.947333,-9252.574275,-1072.533697
7330.788995,-3627.009116,-9252.574275,-612.876398
7330.789312,-3330.926739,-9474.636058,-1149.143247
7330.789628,-3108.864956,-9548.656652,-689.485948
7330.789945,-2886.803174,-10066.800811,-612.876398
7330.790261,-2960.823768,-9992.780217,-536.266849
7330.790577,-2812.782580,-9696.697840,-612.876398
7330.790894,-2738.761985,-9400.615463,-1149.143247
7330.791210,-2960.823768,-8808.450710,-689.485948
7330.791527,-3627.009116,-8438.347739,-1225.752797
7330.791843,-3478.967927,-8068.244768,-1149.143247
7330.792159,-3701.029710,-8364.327145,-2298.286494
7330.792476,-3701.029710,-8882.471304,-2068.457845
7330.792792,-3997.112087,-8808.450710,-2145.067394
7330.793109,-4071.132681,-9252.574275,-1608.800546
7330.793425,-4441.235652,-9030.512492,-612.876398
7330.793741,-3701.029710,-9252.574275,-1225.752797
7330.794058,-3034.844362,-9992.780217,-612.876398
7330.794374,-3552.988522,-9474.636058,-536.266849
7330.794691,-3404.947333,-9474.636058,0.000000
7330.795007,-3627.009116,-8882.471304,-229.828649
7330.795323,-3108.864956,-9474.636058,-995.924147
7330.795640,-3256.906145,-8882.471304,-919.314598
7330.795956,-3849.070898,-8882.471304,-459.657299
7330.796272,-4219.173869,-8438.347739,-306.438199
7330.796589,-4071.132681,-8216.285956,-1072.533697
7330.796905,-3849.070898,-8512.368333,-536.266849
7330.797222,-3627.009116,-8956.491898,-1149.143247
7330.797538,-3775.050304,-8734.430116,-536.266849
7330.797854,-3997.112087,-9030.512492,0.000000
7330.798171,-3256.906145,-9252.574275,306.438199
7330.798487,-3256.906145,-8660.409521,842.705048
7330.798804,-2738.761985,-9252.574275,766.095498
7330.799120,-3849.070898,-8512.368333,1302.362347
7330.799436,-4145.153275,-8956.491898,1072.533697
7330.799753,-3997.112087,-9252.574275,0.000000
7330.800069,-4219.173869,-8956.491898,-306.438199
7330.800386,-4515.256246,-8734.430116,-383.047749
7330.800702,-4515.256246,-8290.306550,0.000000
7330.801018,-3849.070898,-8290.306550,76.609550
7330.801335,-3775.050304,-8290.306550,919.314598
7330.801651,-3478.967927,-8438.347739,153.219100
7330.801968,-3404.947333,-8364.327145,459.657299
7330.802284,-3182.885551,-8586.388927,766.095498
7330.802600,-3108.864956,-8290.306550,1225.752797
7330.802917,-3330.926739,-8808.450710,1302.362347
7330.803233,-3330.926739,-8364.327145,1378.971896
7330.803549,-3552.988522,-8290.306550,1532.190996
7330.803866,-3404.947333,-8290.306550,536.266849
7330.804182,-3404.947333,-8142.265362,766.095498
7330.804499,-3330.926739,-8364.327145,383.047749
7330.804815,-3849.070898,-8438.347739,153.219100
7330.805131,-4589.276840,-8364.327145,459.657299
7330.805448,-4589.276840,-8734.430116,0.000000
7330.805764,-4293.194464,-9030.512492,76.609550
7330.806081,-3034.844362,-9104.533087,-459.657299
7330.806397,-2812.782580,-9474.636058,0.000000
7330.806713,-1850.514855,-8882.471304,1532.190996
7330.807030,-1628.453072,-8734.430116,2221.676944
7330.807346,-1850.514855,-8512.368333,2757.943793
7330.807663,-1850.514855,-8660.409521,2374.896044
7330.807979,-2220.617826,-8808.450710,1378.971896
7330.808295,-2368.659014,-8956.491898,459.657299
7330.808612,-3330.926739,-7994.224174,0.000000
7330.808928,-3849.070898,-7772.162391,0.000000
7330.809245,-4663.297435,-7772.162391,76.609550
7330.809561,-4885.359217,-8438.347739,-842.705048
7330.809877,-5033.400406,-8808.450710,-1072.533697
7330.810194,-4737.318029,-8586.388927,-1915.238745
7330.810510,-3404.947333,-8882.471304,-766.095498
7330.810827,-3849.070898,-8364.327145,0.000000
7330.811143,-2368.659014,-9252.574275,459.657299
7330.811459,-2220.617826,-9770.718434,1225.752797
7330.811776,-2590.720797,-9030.512492,612.876398
7330.812092,-2516.700203,-9400.615463,153.219100
7330.812408,-3478.967927,-9030.512492,153.219100
7330.812725,-2960.823768,-8512.368333,0.000000
7330.813041,-4441.235652,-8882.471304,-919.314598
7330.813358,-5329.482782,-8290.306550,-1455.581446
7330.813674,-4515.256246,-9104.533087,-2145.067394
7330.813990,-5107.421000,-8586.388927,-2068.457845
7330.814307,-5033.400406,-8808.450710,-1532.190996
7330.814623,-4959.379811,-8586.388927,-995.924147
7330.814940,-4441.235652,-8734.430116,-1378.971896
7330.815256,-4293.194464,-8734.430116,-919.314598
7330.815572,-4367.215058,-9770.718434,-919.314598
7330.815889,-3552.988522,-9474.636058,-919.314598
7330.816205,-2886.803174,-8882.471304,-229.828649
7330.816522,-3478.967927,-9178.553681,-306.438199
7330.816838,-3849.070898,-9400.615463,-459.657299
7330.817154,-4071.132681,-9992.780217,-689.485948
7330.817471,-3849.070898,-9104.533087,-1762.019645
7330.817787,-3701.029710,-8586.388927,-1532.190996
7330.818104,-4441.235652,-9104.533087,-1532.190996
7330.818420,-4737.318029,-9178.553681,-766.095498
7330.818736,-4219.173869,-9474.636058,-1149.143247
7330.819053,-3404.947333,-8290.306550,-1302.362347
7330.819369,-3330.926739,-8586.388927,-1225.752797
7330.819685,-4071.132681,-9104.533087,-919.314598
7330.820002,-3552.988522,-9844.739029,0.000000
7330.820318,-3552.988522,-9548.656652,0.000000
7330.820635,-3108.864956,-8290.306550,76.609550
7330.820951,-2738.761985,-8512.368333,229.828649
7330.821267,-3923.091493,-9400.615463,0.000000
7330.821584,-3478.967927,-9400.615463,-1149.143247
7330.821900,-3256.906145,-9030.512492,-1685.410096
7330.822217,-3404.947333,-8364.327145,-153.219100
7330.822533,-4219.173869,-8586.388927,612.876398
7330.822849,-3775.050304,-9696.697840,383.047749
7330.823166,-3256.906145,-9770.718434,842.705048
7330.823482,-3404.947333,-9104.533087,0.000000
7330.823799,-3256.906145,-8586.388927,-459.657299
7330.824115,-3182.885551,-8808.450710,0.000000
7330.824431,-3256.906145,-8956.491898,306.438199
7330.824748,-3034.844362,-7994.224174,76.609550
7330.825064,-2368.659014,-7920.203579,536.266849
7330.825381,-3108.864956,-8586.388927,383.047749
7330.825697,-3404.947333,-8364.327145,919.314598
7330.826013,-3849.070898,-8734.430116,306.438199
7330.826330,-3775.050304,-8586.388927,-383.047749
7330.826646,-3849.070898,-8068.244768,0.000000
7330.826962,-3775.050304,-8364.327145,306.438199
7330.827279,-3404.947333,-8808.450710,995.924147
7330.827595,-3330.926739,-8660.409521,1762.019645
7330.827912,-2960.823768,-8364.327145,2068.457845
7330.828228,-3404.947333,-8808.450710,1225.752797
7330.828544,-3478.967927,-8956.491898,229.828649
7330.828861,-3627.009116,-8586.388927,306.438199
7330.829177,-3923.091493,-8216.285956,306.438199
7330.829494,-3923.091493,-8216.285956,919.314598
7330.829810,-3849.070898,-7994.224174,1072.533697
7330.830126,-3701.029710,-8438.347739,919.314598
7330.830443,-4071.132681,-8364.327145,1302.362347
7330.830759,-4145.153275,-8290.306550,383.047749
7330.831076,-3330.926739,-8734.430116,0.000000
7330.831392,-3256.906145,-8586.388927,383.047749
7330.831708,-3182.885551,-8364.327145,1225.752797
7330.832025,-2664.741391,-7994.224174,1378.971896
7330.832341,-3034.844362,-7846.182985,1838.629195
7330.832658,-3478.967927,-8364.327145,689.485948
7330.832974,-4219.173869,-9030.512492,383.047749
7330.833290,-3997.112087,-9252.574275,-306.438199
7330.833607,-4293.194464,-9030.512492,229.828649
7330.833923,-3923.091493,-9178.553681,383.047749
7330.834239,-3923.091493,-9104.533087,919.314598
7330.834556,-3552.988522,-8882.471304,0.000000
7330.834872,-3182.885551,-8660.409521,229.828649
7330.835189,-3182.885551,-7920.203579,-383.047749
7330.835505,-3330.926739,-8808.450710,153.219100
7330.835821,-3701.029710,-9030.512492,459.657299
7330.836138,-3627.009116,-8660.409521,842.705048
7330.836454,-3627.009116,-8438.347739,0.000000
7330.836771,-3849.070898,-8216.285956,0.000000
7330.837087,-3849.070898,-8808.450710,-1149.143247
7330.837403,-4367.215058,-9030.512492,-1455.581446
7330.837720,-4071.132681,-8586.388927,-1072.533697
7330.838036,-3404.947333,-8438.347739,-536.266849
7330.838353,-3182.885551,-8734.430116,0.000000
7330.838669,-3627.009116,-9918.759623,0.000000
7330.838985,-3701.029710,-9992.780217,229.828649
7330.839302,-3108.864956,-9178.553681,-612.876398
7330.839618,-3552.988522,-8142.265362,-1149.143247
7330.839935,-3849.070898,-8956.491898,-1225.752797
7330.840251,-4219.173869,-9770.718434,-766.095498
7330.840567,-4145.153275,-9104.533087,-766.095498
7330.840884,-4071.132681,-8586.388927,-919.314598
7330.841200,-3849.070898,-8808.450710,-1532.190996
7330.841516,-4367.215058,-8586.388927,-995.924147
7330.841833,-4071.132681,-8808.450710,-1915.238745
7330.842149,-4515.256246,-8068.244768,-1762.019645
7330.842466,-3627.009116,-8216.285956,-766.095498
7330.842782,-3775.050304,-8512.368333,-536.266849
7330.843098,-3701.029710,-8956.491898,-153.219100
7330.843415,-3849.070898,-9326.594869,-153.219100
7330.843731,-3478.967927,-8956.491898,76.609550
7330.844048,-4071.132681,-8956.491898,-459.657299
7330.844364,-3849.070898,-8808.450710,-995.924147
7330.844680,-2960.823768,-9252.574275,-1225.752797
7330.844997,-3923.091493,-8882.471304,-689.485948
7330.845313,-4219.173869,-8734.430116,-612.876398
7330.845630,-4071.132681,-8808.450710,-1072.533697
7330.845946,-4293.194464,-9178.553681,-1149.143247
7330.846262,-4367.215058,-8734.430116,-383.047749
7330.846579,-3627.009116,-8660.409521,-1838.629195
7330.846895,-3330.926739,-9252.574275,-459.657299
7330.847212,-3330.926739,-9030.512492,76.609550
7330.847528,-3182.885551,-8586.388927,612.876398
7330.847844,-3256.906145,-8734.430116,536.266849
7330.848161,-3108.864956,-8808.450710,0.000000
7330.848477,-3182.885551,-8660.409521,-383.047749
7330.848793,-3108.864956,-9178.553681,0.000000
7330.849110,-3404.947333,-8734.430116,0.000000
7330.849426,-4515.256246,-8438.347739,306.438199
7330.849743,-4219.173869,-8660.409521,-229.828649
7330.850059,-4737.318029,-9030.512492,-229.828649
7330.850375,-4589.276840,-8438.347739,-1225.752797
7330.850692,-3627.009116,-8660.409521,-459.657299
7330.851008,-3552.988522,-8364.327145,153.219100
7330.851325,-2960.823768,-8216.285956,689.485948
7330.851641,-2886.803174,-8216.285956,1225.752797
7330.851957,-2738.761985,-8438.347739,1302.362347
7330.852274,-3997.112087,-9252.574275,842.705048
7330.852590,-4071.132681,-8808.450710,-153.219100
7330.852907,-3330.926739,-9400.615463,-612.876398
7330.853223,-3997.112087,-8586.388927,0.000000
7330.853539,-2886.803174,-9326.594869,612.876398
7330.853856,-3182.885551,-9178.553681,919.314598
7330.854172,-2960.823768,-9326.594869,1685.410096
7330.854489,-2664.741391,-9030.512492,1225.752797
7330.854805,-2516.700203,-8364.327145,1302.362347
7330.855121,-3108.864956,-8660.409521,1378.971896
7330.855438,-3034.844362,-8660.409521,842.705048
7330.855754,-2812.782580,-8216.285956,689.485948
7330.856071,-3404.947333,-8586.388927,536.266849
7330.856387,-3923.091493,-7846.182985,995.924147
7330.856703,-3775.050304,-8142.265362,229.828649
7330.857020,-4145.153275,-8438.347739,459.657299
7330.857336,-4367.215058,-8660.409521,0.000000
7330.857652,-3849.070898,-8734.430116,0.000000
7330.857969,-3923.091493,-8882.471304,-383.047749
7330.858285,-3775.050304,-8882.471304,842.705048
7330.858602,-3923.091493,-8956.491898,689.485948
7330.858918,-3478.967927,-9104.533087,1072.533697
7330.859234,-3256.906145,-8512.368333,0.000000
7330.859551,-3330.926739,-8512.368333,0.000000
7330.859867,-3256.906145,-8512.368333,306.438199
7330.860184,-3182.885551,-8216.285956,0.000000
7330.860500,-3552.988522,-7772.162391,153.219100
7330.860816,-3182.885551,-8142.265362,-995.924147
7330.861133,-3478.967927,-8882.471304,0.000000
7330.861449,-3849.070898,-8808.450710,-689.485948
7330.861766,-3775.050304,-8438.347739,-459.657299
7330.862082,-4293.194464,-9178.553681,-459.657299
7330.862398,-4219.173869,-9326.594869,-766.095498
7330.862715,-4441.235652,-9474.636058,-842.705048
7330.863031,-4071.132681,-9400.615463,-689.485948
7330.863348,-3775.050304,-8956.491898,-536.266849
7330.863664,-3108.864956,-9252.574275,-383.047749
7330.863980,-3330.926739,-8882.471304,229.828649
7330.864297,-3404.947333,-9030.512492,153.219100
7330.864613,-3330.926739,-8660.409521,-229.828649
7330.864929,-3404.947333,-8808.450710,-612.876398
7330.865246,-3923.091493,-8882.471304,-842.705048
7330.865562,-4145.153275,-8512.368333,-995.924147
7330.865879,-4219.173869,-8586.388927,-1072.533697
7330.866195,-4737.318029,-8438.347739,-919.314598
7330.866511,-4367.215058,-8956.491898,-1149.143247
7330.866828,-3923.091493,-9178.553681,-1225.752797
7330.867144,-3701.029710,-9622.677246,-1225.752797
7330.867461,-3627.009116,-9622.677246,-536.266849
7330.867777,-3552.988522,-9474.636058,-306.438199
7330.868093,-2886.803174,-9474.636058,-689.485948
7330.868410,-2368.659014,-9770.718434,0.000000
7330.868726,-2886.803174,-9474.636058,306.438199
7330.869043,-3182.885551,-8882.471304,-306.438199
7330.869359,-3108.864956,-8808.450710,-459.657299
7330.869675,-3108.864956,-9252.574275,-459.657299
7330.869992,-3108.864956,-8734.430116,-536.266849
7330.870308,-3182.885551,-8808.450710,153.219100
7330.870624,-3256.906145,-9252.574275,229.828649
7330.870941,-3849.070898,-8512.368333,0.000000
7330.871257,-3923.091493,-8808.450710,76.609550
7330.871574,-4219.173869,-9178.553681,0.000000
7330.871890,-4219.173869,-9474.636058,-689.485948
7330.872206,-3923.091493,-9104.533087,-766.095498
7330.872523,-3552.988522,-8956.491898,-536.266849
7330.872839,-4145.153275,-8882.471304,229.828649
7330.873156,-4293.194464,-8808.450710,383.047749
7330.873472,-4071.132681,-8956.491898,383.047749
7330.873788,-3552.988522,-8808.450710,-383.047749
7330.874105,-3256.906145,-8808.450710,0.000000
7330.874421,-3627.009116,-8290.306550,459.657299
7330.874738,-4219.173869,-8438.347739,1072.533697
7330.875054,-3997.112087,-8586.388927,919.314598
7330.875370,-4219.173869,-8364.327145,459.657299
7330.875687,-4367.215058,-9178.553681,0.000000
7330.876003,-4293.194464,-8586.388927,76.609550
7330.876320,-4441.235652,-8068.244768,536.266849
7330.876636,-4885.359217,-8512.368333,689.485948
7330.876952,-4737.318029,-8882.471304,536.266849
7330.877269,-4219.173869,-8956.491898,153.219100
7330.877585,-3552.988522,-8956.491898,612.876398
7330.877901,-3552.988522,-8586.388927,1915.238745
7330.878218,-3404.947333,-8586.388927,1608.800546
7330.878534,-3182.885551,-8660.409521,2068.457845
7330.878851,-3330.926739,-8882.471304,1915.238745
7330.879167,-2812.782580,-8882.471304,1302.362347
7330.879483,-2590.720797,-9030.512492,1378.971896
7330.879800,-3034.844362,-8808.450710,1762.019645
7330.880116,-2664.741391,-8734.430116,2681.334243
7330.880433,-2738.761985,-8512.368333,2604.724693
7330.880749,-2812.782580,-9326.594869,1991.848295
7330.881065,-3330.926739,-9252.574275,1915.238745
7330.881382,-3108.864956,-9104.533087,1762.019645
7330.881698,-3256.906145,-9252.574275,1378.971896
7330.882015,-3701.029710,-8142.265362,1915.238745
7330.882331,-3108.864956,-8512.368333,2528.115143
7330.882647,-3108.864956,-7994.224174,2834.553343
7330.882964,-3478.967927,-8068.244768,2451.505594
7330.883280,-3034.844362,-7846.182985,1378.971896
7330.883597,-3330.926739,-7772.162391,1838.629195
7330.883913,-3478.967927,-7994.224174,1455.581446
7330.884229,-3404.947333,-7846.182985,1991.848295
7330.884546,-3034.844362,-8364.327145,2298.286494
7330.884862,-3256.906145,-7920.203579,1532.190996
7330.885178,-3552.988522,-8660.409521,1149.143247
7330.885495,-3182.885551,-8808.450710,1608.800546
7330.885811,-3627.009116,-9104.533087,1762.019645
7330.886128,-3701.029710,-9252.574275,1302.362347
7330.886444,-3478.967927,-8808.450710,1532.190996
7330.886760,-3404.947333,-8956.491898,1455.581446
7330.887077,-2960.823768,-9030.512492,1072.533697
7330.887393,-2886.803174,-8364.327145,1302.362347
7330.887710,-2960.823768,-7846.182985,842.705048
7330.888026,-3552.988522,-8216.285956,842.705048
7330.888342,-4145.153275,-8438.347739,153.219100
7330.888659,-3923.091493,-8512.368333,-229.828649
7330.888975,-4219.173869,-8808.450710,-306.438199
7330.889292,-3849.070898,-8808.450710,842.705048
7330.889608,-3923.091493,-8586.388927,1225.752797
7330.889924,-3775.050304,-9104.533087,1149.143247
7330.890241,-3997.112087,-8882.471304,536.266849
7330.890557,-3849.070898,-9030.512492,0.000000
7330.890874,-4219.173869,-8808.450710,153.219100
7330.891190,-4293.194464,-8956.491898,76.609550
7330.891506,-4737.318029,-8512.368333,459.657299
7330.891823,-5255.462188,-8364.327145,76.609550
7330.892139,-4959.379811,-8512.368333,-1149.143247
7330.892455,-4441.235652,-8882.471304,-1532.190996
7330.892772,-4219.173869,-8956.491898,-2068.457845
7330.893088,-4219.173869,-8882.471304,-1608.800546
7330.893405,-4071.132681,-8734.430116,-306.438199
7330.893721,-3330.926739,-9252.574275,-229.828649
7330.894037,-2664.741391,-9844.739029,536.266849
7330.894354,-2442.679609,-10066.800811,919.314598
7330.894670,-2368.659014,-9696.697840,995.924147
7330.894987,-2072.576638,-9474.636058,1225.752797
7330.895303,-2294.638420,-9548.656652,459.657299
7330.895619,-3108.864956,-9252.574275,459.657299
7330.895936,-4145.153275,-9548.656652,-459.657299
7330.896252,-4737.318029,-9622.677246,-842.705048
7330.896569,-4441.235652,-9474.636058,-1532.190996
7330.896885,-4515.256246,-8734.430116,-1455.581446
7330.897201,-4589.276840,-8882.471304,-1378.971896
7330.897518,-4663.297435,-8808.450710,-459.657299
7330.897834,-3627.009116,-9104.533087,-766.095498
7330.898151,-3330.926739,-9030.512492,-306.438199
7330.898467,-3108.864956,-9400.615463,0.000000
7330.898783,-2738.761985,-9548.656652,1149.143247
7330.899100,-2664.741391,-8808.450710,1915.238745
7330.899416,-2368.659014,-9548.656652,1072.533697
7330.899732,-2886.803174,-9326.594869,1072.533697
7330.900049,-3182.885551,-9622.677246,536.266849
7330.900365,-3701.029710,-9326.594869,153.219100
7330.900682,-3627.009116,-8512.368333,-153.219100
7330.900998,-4145.153275,-8586.388927,0.000000
7330.901314,-4515.256246,-8142.265362,76.609550
7330.901631,-4071.132681,-8290.306550,306.438199
7330.901947,-4737.318029,-8216.285956,459.657299
7330.902264,-3849.070898,-8290.306550,306.438199
7330.902580,-3997.112087,-8438.347739,689.485948
7330.902896,-3404.947333,-8512.368333,1532.190996
7330.903213,-3182.885551,-8290.306550,1991.848295
7330.903529,-2886.803174,-8364.327145,1838.629195
7330.903846,-2960.823768,-8956.491898,3064.381992
7330.904162,-3404.947333,-9770.718434,1685.410096
7330.904478,-3404.947333,-8734.430116,1225.752797
7330.904795,-3627.009116,-8734.430116,1378.971896
7330.905111,-4367.215058,-8438.347739,1225.752797
7330.905428,-4515.256246,-8660.409521,1455.581446
7330.905744,-3923.091493,-8512.368333,766.095498
7330.906060,-3404.947333,-7846.182985,919.314598
7330.906377,-3552.988522,-7624.121203,995.924147
7330.906693,-3701.029710,-8142.265362,1685.410096
7330.907009,-3108.864956,-8364.327145,2298.286494
7330.907326,-2590.720797,-7846.182985,1532.190996
7330.907642,-2516.700203,-7550.100608,1915.238745
7330.907959,-2886.803174,-8216.285956,2145.067394
7330.908275,-3404.947333,-8882.471304,1762.019645
7330.908591,-3552.988522,-8882.471304,3064.381992
7330.908908,-3330.926739,-8438.347739,1762.019645
7330.909224,-4663.297435,-7402.059420,2145.067394
7330.909541,-3849.070898,-7994.224174,919.314598
7330.909857,-3923.091493,-9474.636058,153.219100
7330.910173,-4515.256246,-8956.491898,689.485948
7330.910490,-4071.132681,-8216.285956,995.924147
7330.910806,-3849.070898,-7920.203579,1991.848295
7330.911123,-4071.132681,-8438.347739,2451.505594
7330.911439,-3182.885551,-9474.636058,1225.752797
7330.911755,-2812.782580,-8660.409521,459.657299
7330.912072,-3256.906145,-8142.265362,0.000000
7330.912388,-2738.761985,-8290.306550,76.609550
7330.912705,-2960.823768,-8882.471304,1608.800546
7330.913021,-3034.844362,-9400.615463,1608.800546
7330.913337,-3034.844362,-8734.430116,1991.848295
7330.913654,-2738.761985,-9104.533087,1762.019645
7330.913970,-3034.844362,-10214.842000,306.438199
7330.914286,-4071.132681,-9844.739029,-153.219100
7330.914603,-3775.050304,-9400.615463,-612.876398
7330.914919,-3701.029710,-8808.450710,-383.047749
7330.915236,-3923.091493,-8586.388927,229.828649
7330.915552,-3552.988522,-9104.533087,0.000000
7330.915868,-3775.050304,-9474.636058,229.828649
7330.916185,-3923.091493,-8290.306550,76.609550
7330.916501,-3478.967927,-8290.306550,0.000000
7330.916818,-3923.091493,-8734.430116,-1149.143247
7330.917134,-3997.112087,-9400.615463,-536.266849
7330.917450,-3997.112087,-8808.450710,0.000000
7330.917767,-3627.009116,-8808.450710,306.438199
7330.918083,-3404.947333,-9030.512492,383.047749
7330.918400,-3701.029710,-9178.553681,536.266849
7330.918716,-3627.009116,-9696.697840,0.000000
7330.919032,-3849.070898,-9252.574275,-612.876398
7330.919349,-3701.029710,-9474.636058,-1455.581446
7330.919665,-3627.009116,-9252.574275,-842.705048
7330.919982,-3923.091493,-9178.553681,-612.876398
7330.920298,-4145.153275,-8956.491898,229.828649
7330.920614,-3997.112087,-8734.430116,-306.438199
7330.920931,-3849.070898,-9696.697840,153.219100
7330.921247,-4663.297435,-9844.739029,153.219100
7330.921563,-3627.009116,-9474.636058,-383.047749
7330.921880,-2960.823768,-8586.388927,0.000000
7330.922196,-2812.782580,-8586.388927,383.047749
7330.922513,-3034.844362,-8586.388927,536.266849
7330.922829,-3108.864956,-8512.368333,306.438199
7330.923145,-3330.926739,-8290.306550,612.876398
7330.923462,-4071.132681,-8808.450710,229.828649
7330.923778,-4367.215058,-9474.636058,-229.828649
7330.924095,-4663.297435,-9326.594869,0.000000
7330.924411,-4071.132681,-9252.574275,-766.095498
7330.924727,-4071.132681,-8734.430116,0.000000
7330.925044,-3775.050304,-9030.512492,0.000000
7330.925360,-3108.864956,-9400.615463,1455.581446
7330.925677,-2886.803174,-9178.553681,1532.190996
7330.925993,-2812.782580,-8142.265362,2298.286494
7330.926309,-2886.803174,-8364.327145,1378.971896
7330.926626,-3182.885551,-9178.553681,842.705048
7330.926942,-3627.009116,-9474.636058,766.095498
7330.927258,-3923.091493,-8734.430116,383.047749
7330.927575,-3478.967927,-7476.080014,229.828649
7330.927891,-3775.050304,-7846.182985,919.314598
7330.928208,-3701.029710,-9622.677246,842.705048
7330.928524,-3404.947333,-9030.512492,1532.190996
7330.928840,-3478.967927,-8586.388927,612.876398
7330.929157,-3182.885551,-7698.141797,1225.752797
7330.929473,-3775.050304,-8586.388927,1991.848295
7330.929790,-3775.050304,-9178.553681,1838.629195
7330.930106,-2664.741391,-8438.347739,1762.019645
7330.930422,-3478.967927,-8512.368333,1991.848295
7330.930739,-2886.803174,-7994.224174,1915.238745
7330.931055,-3478.967927,-8660.409521,2221.676944
7330.931372,-3775.050304,-9252.574275,1608.800546
7330.931688,-3701.029710,-8734.430116,1225.752797
7330.932004,-3775.050304,-8438.347739,536.266849
7330.932321,-3404.947333,-8734.430116,995.924147
7330.932637,-3701.029710,-8586.388927,1915.238745
7330.932954,-3256.906145,-8660.409521,2145.067394
7330.933270,-3404.947333,-7920.203579,1685.410096
7330.933586,-3701.029710,-8438.347739,1608.800546
7330.933903,-3330.926739,-8808.450710,995.924147
7330.934219,-3404.947333,-9030.512492,1302.362347
7330.934535,-3849.070898,-8068.244768,1991.848295
7330.934852,-3034.844362,-7920.203579,1608.800546
