#time,accel_x,accel_y,accel_z
364.545995,-2368.659014,1036.288319,-78141.740796
364.548555,2072.576638,3997.112087,-75996.673402
364.551115,-148.041188,-592.164754,-77222.426198
364.553675,5329.482782,3108.864956,-75996.673402
364.556235,444.123565,-444.123565,-77528.864398
364.558795,-740.205942,3404.947333,-72779.072310
364.561355,3849.070898,2960.823768,-76915.987999
364.563915,-1776.494261,888.247130,-77682.083497
364.566475,3256.906145,1480.411884,-78294.959896
364.569035,1332.370696,-1480.411884,-77222.426198
364.571595,-148.041188,4293.194464,-74464.482406
364.574155,4589.276840,2516.700203,-75230.577904
364.576715,-3997.112087,-1332.370696,-76915.987999
364.579275,5329.482782,3701.029710,-75077.358804
364.581835,1036.288319,1628.453072,-76915.987999
364.584395,2368.659014,1776.494261,-76609.549800
364.586955,3849.070898,1184.329507,-74770.920605
364.589515,-2664.741391,444.123565,-76609.549800
364.592075,5181.441594,2516.700203,-75230.577904
364.594635,-5033.400406,-4589.276840,-79980.369991
364.597195,12287.418637,3108.864956,-73545.167808
364.599756,20429.683999,-2072.576638,-76149.892501
364.602312,-5329.482782,1184.329507,-80286.808190
364.604868,13767.830521,11103.089130,-71093.662214
364.607424,-7698.141797,-296.082377,-75996.673402
364.609980,9178.553681,1776.494261,-78141.740796
364.612536,12287.418637,4145.153275,-72625.853210
364.615092,2664.741391,-2220.617826,-77835.302597
364.617648,10510.924376,4885.359217,-75383.797003
364.620205,6217.729913,-740.205942,-79214.274493
364.622761,4885.359217,2220.617826,-76456.330700
364.625317,-5625.565159,1036.288319,-74464.482406
364.627873,-3404.947333,-1776.494261,-78448.178995
364.630429,-4885.359217,9918.759623,-71553.319513
364.632985,-148.041188,-1924.535449,-78601.398095
364.635541,-2516.700203,5329.482782,-75077.358804
364.638097,2368.659014,-148.041188,-78141.740796
364.640654,592.164754,-1036.288319,-77682.083497
364.643210,-2812.782580,2960.823768,-76915.987999
364.645766,11547.212695,-4737.318029,-78141.740796
364.648322,14952.160028,4293.194464,-68335.718422
364.650878,-19245.354492,6069.688724,-76915.987999
364.653434,-4737.318029,7402.059420,-72779.072310
364.655990,1776.494261,3849.070898,-78601.398095
364.658547,-8438.347739,1776.494261,-73545.167808
364.661103,-11843.295072,3997.112087,-76303.111601
364.663659,16728.654289,-2368.659014,-75690.235202
364.666215,-23982.672521,6957.935855,-73391.948708
364.668771,15100.201217,-1480.411884,-77528.864398
364.671327,-19985.560434,3552.988522,-77682.083497
364.673883,-3256.906145,148.041188,-79673.931792
364.676439,6069.688724,2368.659014,-73391.948708
364.678996,-22650.301825,-296.082377,-77682.083497
364.681552,10066.800811,740.205942,-76303.111601
364.684108,296.082377,2812.782580,-75537.016103
364.686664,-1924.535449,1332.370696,-76762.768900
364.689220,6069.688724,7105.977043,-74464.482406
364.691776,-17024.736666,-2812.782580,-78601.398095
364.694332,6809.894666,6217.729913,-72932.291410
364.696889,-10807.006753,-2220.617826,-77988.521696
364.699445,3108.864956,1924.535449,-78448.178995
364.702001,1924.535449,-1480.411884,-74770.920605
364.704555,-10214.842000,-148.041188,-78141.740796
364.707110,7105.977043,1776.494261,-74770.920605
364.709664,-6365.771101,-2960.823768,-79061.055394
364.712219,3997.112087,6661.853478,-76149.892501
364.714773,11251.130318,2516.700203,-74311.263306
364.717328,-1924.535449,740.205942,-75077.358804
364.719882,10955.047942,5329.482782,-73238.729609
364.722437,1628.453072,1480.411884,-78448.178995
364.724991,1628.453072,-2812.782580,-80133.589091
364.727546,9178.553681,1776.494261,-73851.606007
364.730100,-1776.494261,-1480.411884,-77222.426198
364.732655,11399.171507,6069.688724,-75383.797003
364.735209,5625.565159,740.205942,-74924.139704
364.737764,6661.853478,1332.370696,-78754.617194
364.740318,2812.782580,2960.823768,-73238.729609
364.742873,-3552.988522,-1332.370696,-78601.398095
364.745427,6069.688724,5625.565159,-72625.853210
364.747982,20873.807564,-4589.276840,-79214.274493
364.750536,-3701.029710,0.000000,-77069.207099
364.753091,3552.988522,-3701.029710,-76456.330700
364.755645,4737.318029,3701.029710,-74464.482406
364.758200,8586.388927,4885.359217,-70174.347617
364.760754,-3108.864956,-5625.565159,-81052.903688
364.763309,31532.773129,4293.194464,-74924.139704
364.765863,-39526.997303,-7254.018232,-84576.942979
364.768418,55959.569215,592.164754,-70634.004916
364.770972,-24870.919651,9178.553681,-68488.937521
364.773527,7254.018232,-1924.535449,-85955.914876
364.776081,31236.690752,7254.018232,-71093.662214
364.778636,-10066.800811,-3404.947333,-77835.302597
364.781190,13471.748144,3701.029710,-75230.577904
364.783745,3997.112087,444.123565,-78754.617194
364.786299,-2812.782580,-888.247130,-78141.740796
364.788853,8438.347739,1776.494261,-75996.673402
364.791408,6661.853478,-2516.700203,-79520.712692
364.793962,5773.606348,1924.535449,-75843.454302
364.796517,5181.441594,6217.729913,-74464.482406
364.799071,1924.535449,-1332.370696,-77682.083497
364.801626,2960.823768,1924.535449,-79214.274493
364.804180,7402.059420,-740.205942,-78294.959896
364.806735,-1036.288319,1924.535449,-76609.549800
364.809289,5477.523971,3552.988522,-74004.825107
364.811844,-12139.377449,-2072.576638,-77682.083497
364.814398,740.205942,4885.359217,-72779.072310
364.816952,888.247130,-4589.276840,-79827.150892
364.819507,-7698.141797,6513.812290,-74464.482406
364.822061,4737.318029,1332.370696,-77835.302597
364.824615,740.205942,4293.194464,-74924.139704
364.827170,-296.082377,-4441.235652,-80593.246390
364.829724,3849.070898,-2072.576638,-78448.178995
364.832278,888.247130,2960.823768,-74004.825107
364.834833,-6809.894666,3404.947333,-75383.797003
364.837387,3256.906145,1184.329507,-74617.701505
364.839942,6365.771101,3701.029710,-74311.263306
364.842496,9622.677246,3404.947333,-72319.415011
364.845050,-21169.889941,888.247130,-81052.903688
364.847605,6365.771101,-1924.535449,-75690.235202
364.850159,-13323.706956,-6069.688724,-81512.560987
364.852713,-7105.977043,3552.988522,-77528.864398
364.855268,12435.459826,-740.205942,-76456.330700
364.857822,-7846.182985,3404.947333,-75537.016103
364.860376,-11843.295072,592.164754,-76762.768900
364.862931,-6513.812290,3404.947333,-77528.864398
364.865485,8438.347739,444.123565,-77069.207099
364.868040,12435.459826,-2368.659014,-75230.577904
364.870594,1776.494261,4589.276840,-71246.881314
364.873148,-6513.812290,2960.823768,-76915.987999
364.875703,-2072.576638,2516.700203,-74464.482406
364.878257,1332.370696,3404.947333,-75996.673402
364.880811,-1776.494261,148.041188,-76456.330700
364.883366,3701.029710,2664.741391,-78448.178995
364.885920,-2812.782580,-1924.535449,-76609.549800
364.888474,-1480.411884,2220.617826,-77528.864398
364.891029,-3404.947333,6069.688724,-71246.881314
364.893583,-2072.576638,-1924.535449,-79061.055394
364.896138,-740.205942,5181.441594,-75843.454302
364.898692,2664.741391,-1332.370696,-78141.740796
364.901246,10214.842000,2220.617826,-74004.825107
364.903801,-9030.512492,2072.576638,-75843.454302
364.906355,12731.542202,1776.494261,-77222.426198
364.908909,3849.070898,-1036.288319,-77835.302597
364.911464,1332.370696,1332.370696,-75843.454302
364.914018,6809.894666,1036.288319,-74617.701505
364.916573,4885.359217,4293.194464,-76609.549800
364.919127,6513.812290,-444.123565,-75843.454302
364.921682,4293.194464,740.205942,-79061.055394
364.924236,7254.018232,-1480.411884,-77069.207099
364.926790,10658.965565,1332.370696,-75843.454302
364.929345,4293.194464,5625.565159,-74004.825107
364.931899,6365.771101,-2664.741391,-78601.398095
364.934454,8586.388927,5477.523971,-72319.415011
364.937008,6957.935855,-1184.329507,-75996.673402
364.939562,10807.006753,-1924.535449,-77069.207099
364.942117,-11843.295072,14211.954086,-72166.195912
364.944671,5329.482782,-4293.194464,-81665.780087
364.947226,3256.906145,3256.906145,-77988.521696
364.949780,9474.636058,888.247130,-74158.044206
364.952335,-15840.407159,2516.700203,-72779.072310
364.954889,15100.201217,5477.523971,-75537.016103
364.957443,10066.800811,-592.164754,-76456.330700
364.959998,-34493.596897,1332.370696,-83197.971083
364.962552,39675.038491,-3404.947333,-78141.740796
364.965107,-10955.047942,-1480.411884,-72779.072310
364.967661,8882.471304,888.247130,-78601.398095
364.970216,9770.718434,1480.411884,-72932.291410
364.972770,-11103.089130,2516.700203,-75230.577904
364.975324,22798.343014,-4885.359217,-78448.178995
364.977879,-8438.347739,7254.018232,-75383.797003
364.980433,15988.448347,-3849.070898,-76303.111601
364.982988,2368.659014,2220.617826,-75996.673402
364.985542,5625.565159,-1628.453072,-79520.712692
364.988097,3849.070898,2072.576638,-78141.740796
364.990651,2960.823768,1628.453072,-74924.139704
364.993205,6809.894666,4589.276840,-73698.386908
364.995760,2368.659014,1332.370696,-74004.825107
364.998314,7402.059420,1924.535449,-76609.549800
365.000869,-888.247130,3701.029710,-75077.358804
365.003423,296.082377,-2220.617826,-81359.341888
365.005977,-5329.482782,5329.482782,-75230.577904
365.008532,-7105.977043,-2664.741391,-76915.987999
365.011085,2664.741391,7105.977043,-73545.167808
365.013638,-740.205942,-2960.823768,-79520.712692
365.016191,5773.606348,3849.070898,-77375.645298
365.018745,-3256.906145,6217.729913,-74311.263306
365.021298,-3701.029710,-1036.288319,-75537.016103
365.023851,888.247130,6069.688724,-73085.510509
365.026404,296.082377,-4145.153275,-81206.122788
365.028957,2220.617826,4145.153275,-72472.634111
365.031511,-7254.018232,1628.453072,-75843.454302
365.034064,-22650.301825,7105.977043,-76456.330700
365.036617,9030.512492,3701.029710,-77528.864398
365.039170,2072.576638,-1776.494261,-79367.493593
365.041723,-8438.347739,1332.370696,-77222.426198
365.044276,9918.759623,148.041188,-75230.577904
365.046830,-5329.482782,1776.494261,-73698.386908
365.049383,-1924.535449,740.205942,-77835.302597
365.051936,19837.519246,1184.329507,-75383.797003
365.054489,-10510.924376,1776.494261,-74004.825107
365.057042,-4293.194464,-2664.741391,-78141.740796
365.059596,18357.107362,1480.411884,-72472.634111
365.062149,-21910.095883,592.164754,-76609.549800
365.064702,3701.029710,-1184.329507,-77682.083497
365.067255,1332.370696,3552.988522,-73545.167808
365.069808,-7402.059420,5181.441594,-76762.768900
365.072361,4441.235652,296.082377,-73545.167808
365.074915,-3108.864956,3849.070898,-79520.712692
365.077468,-2072.576638,1036.288319,-77988.521696
365.080021,-9178.553681,5921.647536,-73391.948708
365.082574,444.123565,148.041188,-76456.330700
365.085127,-2516.700203,1184.329507,-75383.797003
365.087681,8438.347739,3108.864956,-76303.111601
365.090234,-3701.029710,-1480.411884,-79061.055394
365.092787,7550.100608,3256.906145,-76609.549800
365.095340,10066.800811,-740.205942,-76609.549800
365.097893,-740.205942,444.123565,-74924.139704
365.100446,7550.100608,5033.400406,-74617.701505
365.103000,2516.700203,-2368.659014,-79520.712692
365.105553,3701.029710,4737.318029,-74158.044206
365.108106,1036.288319,1480.411884,-76456.330700
365.110659,6957.935855,148.041188,-75230.577904
365.113213,-2072.576638,8734.430116,-71553.319513
365.115766,11399.171507,-4885.359217,-80899.684589
365.118320,10362.883188,2812.782580,-77375.645298
365.120873,-2072.576638,-1036.288319,-79367.493593
365.123426,-6365.771101,148.041188,-77682.083497
365.125980,10658.965565,-740.205942,-76915.987999
365.128533,7698.141797,-2960.823768,-75996.673402
365.131087,6513.812290,1184.329507,-76303.111601
365.133640,10066.800811,888.247130,-75537.016103
365.136194,1036.288319,1628.453072,-77528.864398
365.138747,-3552.988522,5181.441594,-75843.454302
365.141301,26055.249158,-740.205942,-74770.920605
365.143854,-1776.494261,-148.041188,-77835.302597
365.146408,14952.160028,-2812.782580,-77682.083497
365.148961,9622.677246,2072.576638,-73238.729609
365.151515,-3849.070898,5773.606348,-74617.701505
365.154068,17468.860231,740.205942,-77835.302597
365.156622,3701.029710,1036.288319,-78448.178995
365.159175,2220.617826,444.123565,-78294.959896
365.161729,10214.842000,4293.194464,-74004.825107
365.164282,592.164754,148.041188,-76456.330700
365.166836,6217.729913,-444.123565,-77988.521696
365.169389,13767.830521,4589.276840,-74617.701505
365.171942,2368.659014,-2220.617826,-76149.892501
365.174496,-740.205942,3849.070898,-75843.454302
365.177049,6957.935855,3108.864956,-74311.263306
365.179603,4885.359217,1036.288319,-77375.645298
365.182156,5329.482782,1184.329507,-76303.111601
365.184710,-6217.729913,-2664.741391,-78294.959896
365.187263,-888.247130,5477.523971,-73851.606007
365.189817,-9770.718434,1776.494261,-76609.549800
365.192370,-7550.100608,740.205942,-77528.864398
365.194924,6661.853478,1924.535449,-78141.740796
365.197477,-6957.935855,-4145.153275,-79520.712692
365.200031,3997.112087,7994.224174,-73851.606007
365.202584,-6661.853478,0.000000,-76456.330700
365.205138,-10510.924376,-148.041188,-76149.892501
365.207691,9770.718434,5625.565159,-73085.510509
365.210245,-7994.224174,0.000000,-78601.398095
365.212798,-1184.329507,3849.070898,-76149.892501
365.215350,13767.830521,2516.700203,-74311.263306
365.217903,-27387.619854,7994.224174,-75383.797003
365.220455,1184.329507,-888.247130,-77222.426198
365.223008,2220.617826,-5033.400406,-78448.178995
365.225560,-2664.741391,5773.606348,-71706.538613
365.228112,-3701.029710,3997.112087,-75996.673402
365.230665,3849.070898,148.041188,-78294.959896
365.233217,8438.347739,8734.430116,-69561.471218
365.235770,-29312.155303,1924.535449,-77069.207099
365.238322,-15988.448347,7698.141797,-74311.263306
365.240874,-1184.329507,6365.771101,-76762.768900
365.243427,-15988.448347,-3552.988522,-79673.931792
365.245979,888.247130,9030.512492,-71093.662214
365.248532,-10955.047942,-2368.659014,-80133.589091
365.251084,5921.647536,3701.029710,-75383.797003
365.253636,1480.411884,444.123565,-74924.139704
365.256189,-7254.018232,4737.318029,-76149.892501
365.258741,-3997.112087,3552.988522,-75690.235202
365.261294,-2664.741391,-3256.906145,-79520.712692
365.263846,-1776.494261,6513.812290,-75383.797003
365.266398,-3552.988522,-444.123565,-78141.740796
365.268951,3108.864956,1332.370696,-75077.358804
365.271503,-8290.306550,3552.988522,-75383.797003
365.274056,9770.718434,1184.329507,-77528.864398
365.276608,11547.212695,-2664.741391,-79520.712692
365.279160,3552.988522,444.123565,-77528.864398
365.281713,6661.853478,1776.494261,-76303.111601
365.284265,7550.100608,5625.565159,-73851.606007
365.286818,2368.659014,-592.164754,-75230.577904
365.289370,2368.659014,1924.535449,-78294.959896
365.291922,11695.253884,-296.082377,-76609.549800
365.294475,3108.864956,1036.288319,-76609.549800
365.297027,7254.018232,4589.276840,-75230.577904
365.299580,-4441.235652,-2960.823768,-77528.864398
365.302132,9178.553681,3552.988522,-74770.920605
365.304684,14359.995275,-3849.070898,-75690.235202
365.307237,15840.407159,-7846.182985,-83197.971083
365.309789,12435.459826,7254.018232,-71553.319513
365.312342,-3552.988522,3849.070898,-77375.645298
365.314894,-888.247130,296.082377,-80593.246390
365.317442,7994.224174,-2516.700203,-76915.987999
365.319994,7846.182985,3256.906145,-71859.757712
365.322545,6365.771101,1184.329507,-76303.111601
365.325097,-3849.070898,5625.565159,-76762.768900
365.327649,23686.590144,1480.411884,-73545.167808
365.330201,7105.977043,-1036.288319,-77988.521696
365.332752,2072.576638,3997.112087,-74004.825107
365.335304,-1036.288319,-1036.288319,-78294.959896
365.337856,444.123565,1628.453072,-75537.016103
365.340408,1776.494261,3108.864956,-73545.167808
365.342959,12583.501014,-3108.864956,-79367.493593
365.345511,1480.411884,4885.359217,-74924.139704
365.348063,14508.036463,-148.041188,-78294.959896
365.350615,2220.617826,2220.617826,-72779.072310
365.353166,740.205942,-1480.411884,-79367.493593
365.355718,5625.565159,-592.164754,-78294.959896
365.358270,-1036.288319,2664.741391,-73391.948708
365.360822,10510.924376,3256.906145,-75690.235202
365.363373,-10955.047942,0.000000,-76149.892501
365.365925,-296.082377,7402.059420,-73391.948708
365.368477,888.247130,-2960.823768,-78448.178995
365.371029,-7402.059420,148.041188,-79673.931792
365.373580,8734.430116,2516.700203,-75996.673402
365.376132,-10807.006753,740.205942,-78141.740796
365.378684,7402.059420,7846.182985,-74464.482406
365.381236,-2960.823768,-1480.411884,-78141.740796
365.383787,-5625.565159,3404.947333,-75077.358804
365.386339,12583.501014,-592.164754,-76915.987999
365.388891,-9474.636058,5477.523971,-75996.673402
365.391443,11251.130318,0.000000,-76609.549800
365.393994,-3256.906145,3552.988522,-74617.701505
365.396546,-6217.729913,-296.082377,-80746.465489
365.399098,-3701.029710,6957.935855,-74924.139704
365.401649,-7698.141797,-1776.494261,-79827.150892
365.404201,3552.988522,3108.864956,-76149.892501
365.406752,11251.130318,-296.082377,-76609.549800
365.409304,-3552.988522,4293.194464,-78294.959896
365.411856,-15100.201217,5625.565159,-74004.825107
365.414407,2812.782580,-4885.359217,-78448.178995
365.416959,-5329.482782,2368.659014,-72166.195912
365.419510,-444.123565,-296.082377,-78141.740796
365.422062,-5033.400406,1184.329507,-76456.330700
365.424613,-2960.823768,3552.988522,-77528.864398
365.427165,2812.782580,888.247130,-74311.263306
365.429717,-1184.329507,2220.617826,-75537.016103
365.432268,-2516.700203,888.247130,-75383.797003
365.434820,-8586.388927,1184.329507,-76915.987999
365.437371,2664.741391,-3849.070898,-77682.083497
365.439923,4885.359217,6217.729913,-72319.415011
365.442474,-7402.059420,2072.576638,-76915.987999
365.445026,7846.182985,-2664.741391,-79520.712692
365.447577,-1776.494261,2072.576638,-76762.768900
365.450129,7254.018232,-1332.370696,-79520.712692
365.452681,8290.306550,2812.782580,-74311.263306
365.455232,6661.853478,1184.329507,-76915.987999
365.457784,4293.194464,1480.411884,-75383.797003
365.460335,4737.318029,4441.235652,-73851.606007
365.462887,4589.276840,-3701.029710,-78907.836294
365.465438,3701.029710,6217.729913,-75843.454302
365.467990,7994.224174,-740.205942,-76915.987999
365.470542,8142.265362,888.247130,-76915.987999
365.473093,10066.800811,5625.565159,-75077.358804
365.475645,3256.906145,592.164754,-75996.673402
365.478196,-11547.212695,-1036.288319,-77375.645298
365.480748,22502.260637,-4145.153275,-75843.454302
365.483299,7105.977043,2516.700203,-76303.111601
365.485851,-1184.329507,4145.153275,-77528.864398
365.488402,3701.029710,-1480.411884,-78294.959896
365.490954,7550.100608,4441.235652,-71400.100414
365.493506,10807.006753,5329.482782,-72166.195912
365.496057,-8142.265362,-1480.411884,-78601.398095
365.498609,14804.118840,-1332.370696,-75843.454302
365.501088,-1776.494261,3701.029710,-76303.111601
365.503567,1480.411884,3108.864956,-77988.521696
365.506046,19245.354492,1332.370696,-73851.606007
365.508525,-6365.771101,5773.606348,-72932.291410
365.511005,11843.295072,1924.535449,-76456.330700
365.513484,14063.912898,444.123565,-78141.740796
365.515963,-7402.059420,2072.576638,-73851.606007
365.518442,19985.560434,3849.070898,-76149.892501
365.520921,-444.123565,1036.288319,-76303.111601
365.523401,6365.771101,-2220.617826,-80746.465489
365.525880,3849.070898,3849.070898,-73851.606007
365.528359,4737.318029,1184.329507,-77222.426198
365.530838,7846.182985,3108.864956,-74158.044206
365.533317,-7105.977043,1480.411884,-76609.549800
365.535796,444.123565,5033.400406,-75690.235202
365.538276,-7994.224174,2368.659014,-74464.482406
365.540755,-11547.212695,2072.576638,-76609.549800
365.543234,1924.535449,5477.523971,-74464.482406
365.545713,-5921.647536,-1924.535449,-77682.083497
365.548192,2368.659014,8438.347739,-73238.729609
365.550672,-1480.411884,-4293.194464,-79827.150892
365.553151,3108.864956,1036.288319,-75383.797003
365.555630,2516.700203,3849.070898,-74770.920605
365.558109,-5329.482782,0.000000,-77682.083497
365.560588,-12583.501014,148.041188,-79827.150892
365.563068,6957.935855,-3849.070898,-79673.931792
365.565547,-9622.677246,5625.565159,-69408.252119
365.568026,-888.247130,2960.823768,-72932.291410
365.570505,-1924.535449,-1628.453072,-77988.521696
365.572984,-148.041188,4885.359217,-72779.072310
365.575463,13323.706956,-1332.370696,-76456.330700
365.577943,-4293.194464,7698.141797,-76303.111601
365.580422,-21614.013506,4885.359217,-75690.235202
365.582901,-8586.388927,3256.906145,-74617.701505
365.585380,-4885.359217,7105.977043,-73545.167808
365.587859,6957.935855,-3849.070898,-80133.589091
365.590339,11991.336260,5329.482782,-74464.482406
365.592818,-9030.512492,-2368.659014,-77528.864398
365.595297,2960.823768,3552.988522,-74770.920605
365.597776,-592.164754,2220.617826,-74464.482406
365.600275,-11103.089130,4441.235652,-76303.111601
365.602774,888.247130,-3552.988522,-79827.150892
365.605273,-3256.906145,3552.988522,-76303.111601
365.607772,-444.123565,-888.247130,-76762.768900
365.610271,6661.853478,6365.771101,-73851.606007
365.612770,-4441.235652,-1776.494261,-77222.426198
365.615269,4589.276840,1036.288319,-79827.150892
365.617768,12879.583391,740.205942,-74617.701505
365.620267,-148.041188,1776.494261,-74770.920605
365.622766,15100.201217,4145.153275,-75843.454302
365.625265,2368.659014,-1924.535449,-79673.931792
365.627764,-296.082377,3108.864956,-75996.673402
365.630263,12139.377449,-444.123565,-75843.454302
365.632762,1184.329507,4145.153275,-75383.797003
365.635261,11991.336260,1036.288319,-75690.235202
365.637760,0.000000,2960.823768,-76149.892501
365.640259,19393.395680,-1036.288319,-77375.645298
365.642758,13323.706956,-888.247130,-75996.673402
365.645257,0.000000,2812.782580,-70021.128517
365.647756,8142.265362,3404.947333,-78601.398095
365.650255,14804.118840,1036.288319,-73085.510509
365.652754,-4737.318029,-2220.617826,-81052.903688
365.655253,9030.512492,-444.123565,-74004.825107
365.657752,5181.441594,3701.029710,-74004.825107
365.660251,-4589.276840,-1924.535449,-80593.246390
365.662750,296.082377,2812.782580,-77682.083497
365.665249,7846.182985,-296.082377,-75230.577904
365.667748,6809.894666,-5773.606348,-79673.931792
365.670247,10214.842000,6513.812290,-72012.976812
365.672746,-1628.453072,3849.070898,-73698.386908
365.675245,6217.729913,2516.700203,-76456.330700
365.677744,9770.718434,1628.453072,-77375.645298
365.680243,592.164754,-2812.782580,-77835.302597
365.682742,10510.924376,3404.947333,-76915.987999
365.685241,10214.842000,4145.153275,-75383.797003
365.687739,-11843.295072,-2220.617826,-74924.139704
365.690238,15248.242405,4885.359217,-73545.167808
365.692737,8438.347739,0.000000,-77835.302597
365.695236,2072.576638,1332.370696,-77375.645298
365.697735,-740.205942,2368.659014,-74924.139704
365.700250,-14804.118840,-148.041188,-78141.740796
365.702765,1480.411884,4293.194464,-73391.948708
365.705280,-3997.112087,-3256.906145,-77375.645298
365.707795,1184.329507,3701.029710,-77682.083497
365.710309,1776.494261,592.164754,-76762.768900
365.712824,-888.247130,1480.411884,-76303.111601
365.715339,-2516.700203,9030.512492,-72012.976812
365.717854,-6365.771101,-6365.771101,-79214.274493
365.720368,-3849.070898,6069.688724,-75077.358804
365.722883,4589.276840,0.000000,-75996.673402
365.725398,6069.688724,-4589.276840,-77069.207099
365.727913,-10362.883188,14359.995275,-69561.471218
365.730428,-888.247130,3256.906145,-76149.892501
365.732942,9474.636058,0.000000,-77375.645298
365.735457,-23094.425390,-1924.535449,-82278.656485
365.737972,20577.725188,9326.594869,-71859.757712
365.740487,4293.194464,296.082377,-72012.976812
365.743001,-17764.942608,-1184.329507,-79827.150892
365.745516,41155.450375,-1184.329507,-68182.499322
365.748031,-25611.125593,-2516.700203,-76303.111601
365.750546,27535.661042,4737.318029,-78754.617194
365.753061,-27535.661042,1628.453072,-77375.645298
365.755575,18653.189738,444.123565,-74464.482406
365.758090,-5033.400406,4293.194464,-71246.881314
365.760605,-5625.565159,-4737.318029,-82738.313784
365.763120,8882.471304,1776.494261,-74617.701505
365.765634,-14359.995275,1776.494261,-75690.235202
365.768149,14063.912898,2516.700203,-75230.577904
365.770664,-7550.100608,-444.123565,-77528.864398
365.773179,6809.894666,-2664.741391,-78754.617194
365.775694,-4885.359217,5477.523971,-72779.072310
365.778208,2812.782580,1924.535449,-77528.864398
365.780723,6365.771101,2220.617826,-72625.853210
365.783238,7254.018232,3256.906145,-74311.263306
365.785753,13915.871710,-1184.329507,-76149.892501
365.788267,-2664.741391,4293.194464,-75537.016103
365.790782,1924.535449,148.041188,-77069.207099
365.793297,-740.205942,-1480.411884,-75996.673402
365.795812,3997.112087,6957.935855,-74617.701505
365.798327,10807.006753,-2960.823768,-79367.493593
365.800854,9326.594869,4441.235652,-76303.111601
365.803382,10510.924376,2368.659014,-76915.987999
365.805910,-15988.448347,3256.906145,-77682.083497
365.808438,22502.260637,-8142.265362,-79367.493593
365.810966,19097.313304,2960.823768,-75077.358804
365.813494,-10807.006753,3552.988522,-76762.768900
365.816022,6069.688724,1184.329507,-79367.493593
365.818550,9178.553681,5477.523971,-73238.729609
365.821078,2516.700203,5329.482782,-76149.892501
365.823606,-6365.771101,888.247130,-75996.673402
365.826134,6809.894666,-1776.494261,-81359.341888
365.828662,-1184.329507,-1480.411884,-76456.330700
365.831190,2516.700203,2220.617826,-76609.549800
365.833717,10362.883188,5477.523971,-72319.415011
365.836245,14063.912898,-2220.617826,-77528.864398
365.838773,3108.864956,6513.812290,-74004.825107
365.841301,6365.771101,-1628.453072,-77528.864398
365.843829,-2072.576638,4885.359217,-74464.482406
365.846357,9474.636058,-148.041188,-77528.864398
365.848885,2220.617826,4441.235652,-74617.701505
365.851413,5329.482782,-3552.988522,-79214.274493
365.853941,7550.100608,-888.247130,-77835.302597
365.856469,3108.864956,4293.194464,-73851.606007
365.858997,-9770.718434,1480.411884,-77222.426198
365.861525,444.123565,3404.947333,-74004.825107
365.864053,-2220.617826,-1332.370696,-80440.027290
365.866580,-6513.812290,1036.288319,-76609.549800
365.869108,5625.565159,1480.411884,-75537.016103
365.871636,-7254.018232,3849.070898,-75690.235202
365.874164,1480.411884,-1036.288319,-78907.836294
365.876692,-10658.965565,4441.235652,-71400.100414
365.879220,-8586.388927,592.164754,-76149.892501
365.881748,-1628.453072,1184.329507,-76915.987999
365.884276,10955.047942,4145.153275,-72779.072310
365.886804,-22946.384202,3404.947333,-79827.150892
365.889332,1184.329507,4737.318029,-74924.139704
365.891860,444.123565,148.041188,-75843.454302
365.894388,-6365.771101,2664.741391,-74924.139704
365.896916,-5773.606348,3256.906145,-76915.987999
365.899443,15544.324782,5181.441594,-73851.606007
365.901921,-24574.837274,8586.388927,-67876.061123
365.904398,-17024.736666,-1480.411884,-83044.751983
365.906875,5625.565159,-740.205942,-74158.044206
365.909352,-17468.860231,-1036.288319,-78294.959896
365.911829,8142.265362,1036.288319,-76609.549800
365.914307,-888.247130,-888.247130,-77835.302597
365.916784,-1480.411884,3404.947333,-75537.016103
365.919261,-2664.741391,1332.370696,-74770.920605
365.921738,-6365.771101,3849.070898,-76149.892501
365.924215,-2368.659014,1184.329507,-78907.836294
365.926692,7846.182985,6513.812290,-75996.673402
365.929170,-2664.741391,888.247130,-76762.768900
365.931647,-4145.153275,1184.329507,-75383.797003
365.934124,8290.306550,2220.617826,-77222.426198
365.936601,2072.576638,740.205942,-77682.083497
365.939078,10807.006753,296.082377,-77528.864398
365.941556,9474.636058,-740.205942,-77988.521696
365.944033,8438.347739,4145.153275,-75077.358804
365.946510,1480.411884,1776.494261,-75383.797003
365.948987,3256.906145,-4737.318029,-78601.398095
365.951464,888.247130,2664.741391,-77988.521696
365.953941,13027.624579,-888.247130,-77835.302597
365.956419,-2368.659014,3108.864956,-76149.892501
365.958896,17320.819043,2220.617826,-76915.987999
365.961373,18209.066173,1184.329507,-72779.072310
365.963850,18061.024985,-2368.659014,-72012.976812
365.966327,-296.082377,6365.771101,-75230.577904
365.968805,-592.164754,3256.906145,-78294.959896
365.971282,-1036.288319,3404.947333,-75690.235202
365.973759,4885.359217,0.000000,-76609.549800
365.976236,2960.823768,4145.153275,-77528.864398
365.978713,-10214.842000,2960.823768,-77682.083497
365.981190,8290.306550,0.000000,-76609.549800
365.983668,10066.800811,-2072.576638,-74617.701505
365.986145,444.123565,444.123565,-77682.083497
365.988622,16580.613101,7254.018232,-72932.291410
365.991099,5477.523971,-3849.070898,-77069.207099
365.993576,-8586.388927,5921.647536,-75230.577904
365.996054,18653.189738,1332.370696,-77375.645298
365.998531,-5033.400406,1184.329507,-73391.948708
366.001031,9474.636058,3256.906145,-76915.987999
366.003531,4293.194464,592.164754,-77682.083497
366.006031,6069.688724,-1184.329507,-78907.836294
366.008532,13471.748144,3997.112087,-74311.263306
366.011032,-7550.100608,-2072.576638,-77682.083497
366.013532,1332.370696,3997.112087,-75690.235202
366.016032,-10510.924376,1924.535449,-75843.454302
366.018532,-2812.782580,4293.194464,-75537.016103
366.021033,-1628.453072,3108.864956,-74311.263306
366.023533,-296.082377,-1480.411884,-78294.959896
366.026033,-5033.400406,8290.306550,-73238.729609
366.028533,3108.864956,-2960.823768,-80440.027290
366.031033,-9326.594869,-296.082377,-78141.740796
366.033534,-3108.864956,-444.123565,-75537.016103
366.036034,-3404.947333,2368.659014,-75690.235202
366.038534,-14952.160028,10658.965565,-73391.948708
366.041034,3108.864956,-6069.688724,-86109.133975
366.043534,-4589.276840,9474.636058,-75077.358804
366.046034,-5477.523971,-2664.741391,-77222.426198
366.048535,-4441.235652,-444.123565,-78754.617194
366.051035,13027.624579,3552.988522,-73545.167808
366.053535,-6957.935855,-5921.647536,-78601.398095
366.056035,15396.283594,1628.453072,-75383.797003
366.058535,4293.194464,1332.370696,-71859.757712
366.061036,-22946.384202,-3108.864956,-78601.398095
366.063536,7846.182985,3108.864956,-75843.454302
366.066036,-9918.759623,-1184.329507,-75537.016103
366.068536,-4293.194464,2220.617826,-80440.027290
366.071036,-2368.659014,-2664.741391,-77222.426198
366.073537,-16432.571912,3404.947333,-75690.235202
366.076037,4589.276840,2516.700203,-75537.016103
366.078537,-13915.871710,-296.082377,-77835.302597
366.081037,6809.894666,2812.782580,-74924.139704
366.083537,8290.306550,0.000000,-75690.235202
366.086038,-13323.706956,1480.411884,-75537.016103
366.088538,13915.871710,3849.070898,-74770.920605
366.091038,5625.565159,1628.453072,-74617.701505
366.093538,3997.112087,148.041188,-77375.645298
366.096038,17616.901420,-1184.329507,-78601.398095
366.098539,1924.535449,3849.070898,-76149.892501
366.101057,9770.718434,3404.947333,-74770.920605
366.103576,-5921.647536,-1332.370696,-76915.987999
366.106095,4293.194464,2516.700203,-79061.055394
366.108614,5625.565159,-3552.988522,-77988.521696
366.111133,888.247130,6809.894666,-73238.729609
366.113651,-1924.535449,-740.205942,-79673.931792
366.116170,3256.906145,3997.112087,-78294.959896
366.118689,-1776.494261,888.247130,-71553.319513
366.121208,-3552.988522,-1776.494261,-81052.903688
366.123726,16136.489536,2516.700203,-74617.701505
366.126245,-7550.100608,-3701.029710,-78907.836294
366.128764,-10658.965565,3256.906145,-73698.386908
366.131283,29016.072926,1036.288319,-76609.549800
366.133802,-2664.741391,0.000000,-77069.207099
366.136320,2368.659014,10658.965565,-74311.263306
366.138839,15544.324782,1036.288319,-77988.521696
366.141358,-13027.624579,1184.329507,-76456.330700
366.143877,14359.995275,4589.276840,-77222.426198
366.146396,2072.576638,1628.453072,-76915.987999
366.148914,4589.276840,-2516.700203,-81665.780087
366.151433,11399.171507,2664.741391,-75690.235202
366.153952,-4737.318029,-1036.288319,-76303.111601
366.156471,9178.553681,2960.823768,-75230.577904
366.158990,8290.306550,1480.411884,-77375.645298
366.161508,6217.729913,-2072.576638,-79061.055394
366.164027,3404.947333,5625.565159,-72472.634111
366.166546,-14952.160028,-1924.535449,-78754.617194
366.169065,-444.123565,4145.153275,-73085.510509
366.171584,-2812.782580,1332.370696,-76915.987999
366.174102,-6809.894666,5033.400406,-75537.016103
366.176621,6957.935855,1628.453072,-76456.330700
366.179140,-9622.677246,0.000000,-77835.302597
366.181659,444.123565,6365.771101,-72319.415011
366.184177,740.205942,-3849.070898,-79061.055394
366.186696,-5773.606348,4145.153275,-76303.111601
366.189215,23242.466579,-7846.182985,-78907.836294
366.191734,10955.047942,2812.782580,-70480.785816
366.194253,-14063.912898,8734.430116,-75383.797003
366.196771,-888.247130,9474.636058,-76456.330700
366.199290,-6809.894666,2368.659014,-74770.920605
366.201824,1332.370696,-3552.988522,-77222.426198
366.204358,10214.842000,3849.070898,-75537.016103
366.206892,-7254.018232,-592.164754,-79367.493593
366.209427,7402.059420,4589.276840,-71093.662214
366.211961,-13175.665768,8586.388927,-74004.825107
366.214495,1332.370696,-2812.782580,-79367.493593
366.217029,1036.288319,888.247130,-73085.510509
366.219563,-19393.395680,5329.482782,-77069.207099
366.222097,1776.494261,-1924.535449,-77988.521696
366.224631,-4293.194464,4293.194464,-74464.482406
366.227165,-5033.400406,-3108.864956,-81052.903688
366.229699,2368.659014,5625.565159,-74004.825107
366.232233,-1776.494261,2220.617826,-74464.482406
366.234768,1924.535449,-1480.411884,-77069.207099
366.237302,-9770.718434,3997.112087,-75537.016103
366.239836,13323.706956,-888.247130,-78754.617194
366.242370,6957.935855,4589.276840,-73698.386908
366.244904,6957.935855,-296.082377,-77528.864398
366.247438,7994.224174,1480.411884,-76303.111601
366.249972,2664.741391,1480.411884,-77528.864398
366.252506,4145.153275,-1628.453072,-77375.645298
366.255040,-740.205942,3552.988522,-75996.673402
366.257574,2368.659014,3997.112087,-76149.892501
366.260108,-3256.906145,-1480.411884,-77988.521696
366.262643,1924.535449,5773.606348,-74158.044206
366.265177,18653.189738,-3108.864956,-76303.111601
366.267711,-3256.906145,9030.512492,-72319.415011
366.270245,2516.700203,3108.864956,-76303.111601
366.272779,3701.029710,-2220.617826,-81512.560987
366.275313,9622.677246,10066.800811,-69561.471218
366.277847,-13323.706956,-3552.988522,-80133.589091
366.280381,14508.036463,9622.677246,-74464.482406
366.282915,-2368.659014,-740.205942,-77222.426198
366.285449,-16432.571912,1332.370696,-83044.751983
366.287983,28127.825796,8734.430116,-69867.909418
366.290518,1184.329507,5625.565159,-73545.167808
366.293052,2812.782580,-4885.359217,-80593.246390
366.295586,18209.066173,9178.553681,-68795.375720
366.298120,-12139.377449,-3997.112087,-80286.808190
366.300654,11103.089130,5773.606348,-73391.948708
366.303193,296.082377,-4589.276840,-81665.780087
366.305739,7402.059420,6809.894666,-73391.948708
366.308284,3108.864956,740.205942,-76149.892501
366.310829,2812.782580,0.000000,-75077.358804
366.313374,-3108.864956,2960.823768,-78448.178995
366.315920,-5625.565159,-444.123565,-78141.740796
366.318465,-10510.924376,2368.659014,-74311.263306
366.321010,3701.029710,3256.906145,-76303.111601
366.323555,-14359.995275,592.164754,-76609.549800
366.326101,13027.624579,1036.288319,-75690.235202
366.328646,-888.247130,1036.288319,-77682.083497
366.331191,-2664.741391,1184.329507,-80286.808190
366.333736,-2812.782580,2516.700203,-73238.729609
366.336282,-14656.077652,592.164754,-76762.768900
366.338827,-10066.800811,2368.659014,-79520.712692
366.341372,-6957.935855,-1480.411884,-80440.027290
366.343917,-3108.864956,2812.782580,-74464.482406
366.346463,2516.700203,10362.883188,-73545.167808
366.349008,-19689.478057,-4589.276840,-80286.808190
366.351553,-15692.365970,4441.235652,-74311.263306
366.354098,12139.377449,0.000000,-78907.836294
366.356644,-16432.571912,1924.535449,-78294.959896
366.359189,-1628.453072,1628.453072,-74158.044206
366.361734,9326.594869,2516.700203,-74464.482406
366.364279,-26351.331535,6365.771101,-72932.291410
366.366825,9918.759623,-1776.494261,-78754.617194
366.369370,-1184.329507,148.041188,-76609.549800
366.371915,-12583.501014,3701.029710,-77528.864398
366.374460,12583.501014,296.082377,-76915.987999
366.377006,-17912.983796,444.123565,-75690.235202
366.379551,12879.583391,1776.494261,-76303.111601
366.382096,1776.494261,4145.153275,-75690.235202
366.384641,-9918.759623,-444.123565,-77069.207099
366.387187,12731.542202,2368.659014,-74311.263306
366.389732,-2072.576638,1332.370696,-76303.111601
366.392277,12583.501014,1480.411884,-76303.111601
366.394822,9622.677246,-444.123565,-77222.426198
366.397368,4441.235652,-1480.411884,-79061.055394
366.399913,592.164754,2516.700203,-74770.920605
366.402458,-3256.906145,3108.864956,-74770.920605
366.404960,6217.729913,-1184.329507,-78141.740796
366.407462,10658.965565,3849.070898,-77528.864398
366.409964,8142.265362,-1628.453072,-77222.426198
366.412466,3701.029710,3256.906145,-75537.016103
366.414968,35974.008781,-3997.112087,-75077.358804
366.417470,-10955.047942,4885.359217,-72166.195912
366.419972,11695.253884,6217.729913,-70174.347617
366.422474,-7254.018232,-5477.523971,-81052.903688
366.424976,9622.677246,3552.988522,-74158.044206
366.427478,14952.160028,740.205942,-74770.920605
366.429980,2960.823768,-3404.947333,-79980.369991
366.432482,23686.590144,-3552.988522,-74617.701505
366.434984,2664.741391,2664.741391,-75996.673402
366.437486,1628.453072,2220.617826,-75996.673402
366.439988,10658.965565,5181.441594,-73851.606007
366.442490,2368.659014,-3552.988522,-78754.617194
366.444992,6957.935855,9030.512492,-72319.415011
366.447494,5329.482782,-2812.782580,-78907.836294
366.449996,1628.453072,2664.741391,-77988.521696
366.452498,8586.388927,1776.494261,-75690.235202
366.455000,-592.164754,740.205942,-77069.207099
366.457502,7254.018232,2812.782580,-73698.386908
366.460004,4145.153275,-444.123565,-79520.712692
366.462506,-6809.894666,3701.029710,-76762.768900
366.465008,-2516.700203,1332.370696,-74770.920605
366.467510,-10510.924376,2812.782580,-75230.577904
366.470012,-7550.100608,3108.864956,-75843.454302
366.472514,9622.677246,-3997.112087,-80286.808190
366.475016,-2220.617826,4885.359217,-75537.016103
366.477518,-296.082377,2516.700203,-76149.892501
366.480020,-8438.347739,-1776.494261,-75843.454302
366.482522,-3997.112087,3701.029710,-75383.797003
366.485024,12139.377449,1628.453072,-74004.825107
366.487526,-32272.979071,6365.771101,-84270.504780
366.490028,7550.100608,148.041188,-77988.521696
366.492530,15692.365970,5181.441594,-73085.510509
366.495032,-44560.397708,3701.029710,-75077.358804
366.497534,25315.043216,-3256.906145,-79214.274493
366.500036,-6365.771101,5329.482782,-75383.797003
366.502537,-20577.725188,-2072.576638,-80133.589091
366.505058,28275.866984,5625.565159,-72166.195912
366.507579,-32421.020260,6661.853478,-75230.577904
366.510099,2368.659014,-2516.700203,-77835.302597
366.512620,-5625.565159,6809.894666,-72472.634111
366.515140,-13471.748144,-7105.977043,-82278.656485
366.517661,10807.006753,7402.059420,-78141.740796
366.520182,-6365.771101,5181.441594,-72319.415011
366.522702,-148.041188,148.041188,-76456.330700
366.525223,4885.359217,1332.370696,-78141.740796
366.527743,-888.247130,-4293.194464,-80899.684589
366.530264,-6661.853478,4885.359217,-71859.757712
366.532784,7254.018232,2072.576638,-78601.398095
366.535305,8734.430116,-1332.370696,-76456.330700
366.537826,9030.512492,5477.523971,-74004.825107
366.540346,8734.430116,-3701.029710,-80286.808190
366.542867,-444.123565,1036.288319,-77528.864398
366.545387,3404.947333,4589.276840,-73851.606007
366.547908,-2072.576638,-1480.411884,-76149.892501
366.550429,11251.130318,1332.370696,-77988.521696
366.552949,-888.247130,-2220.617826,-80133.589091
366.555470,14063.912898,4145.153275,-73851.606007
366.557990,-8586.388927,6809.894666,-74924.139704
366.560511,12435.459826,-3256.906145,-81359.341888
366.563031,2368.659014,592.164754,-74617.701505
366.565552,-6957.935855,-6365.771101,-82738.313784
366.568073,22650.301825,6661.853478,-71553.319513
366.570593,-18061.024985,-2812.782580,-82125.437386
366.573114,17024.736666,-592.164754,-79520.712692
366.575634,27979.784608,4885.359217,-67416.403824
366.578155,-10066.800811,-4293.194464,-79520.712692
366.580675,26055.249158,7105.977043,-73698.386908
366.583196,-7550.100608,-1036.288319,-79827.150892
366.585683,15544.324782,-3997.112087,-79827.150892
366.588170,6809.894666,5773.606348,-70634.004916
366.590657,-1480.411884,-7846.182985,-83657.628382
366.593144,7105.977043,9030.512492,-73238.729609
366.595631,1924.535449,-444.123565,-78448.178995
366.598117,6365.771101,1184.329507,-74311.263306
366.600604,7550.100608,3701.029710,-75843.454302
366.603091,-1924.535449,444.123565,-76303.111601
366.605578,-10510.924376,4293.194464,-76303.111601
366.608065,-4737.318029,444.123565,-78141.740796
366.610552,-7550.100608,2516.700203,-75230.577904
366.613039,3108.864956,4441.235652,-70940.443115
366.615526,-444.123565,-1332.370696,-78294.959896
366.618013,1924.535449,4737.318029,-77222.426198
366.620500,-6957.935855,-2664.741391,-76609.549800
366.622987,-148.041188,2664.741391,-75383.797003
366.625473,-11547.212695,-3404.947333,-79827.150892
366.627960,-7254.018232,9178.553681,-74464.482406
366.630447,1776.494261,-8438.347739,-81206.122788
366.632934,-12139.377449,2812.782580,-76915.987999
366.635421,14656.077652,5773.606348,-73851.606007
366.637908,-5625.565159,1480.411884,-76609.549800
366.640395,-1628.453072,-1332.370696,-76149.892501
366.642882,21465.972318,-3701.029710,-80746.465489
366.645369,-4441.235652,-592.164754,-76915.987999
366.647856,-8734.430116,8882.471304,-70787.224015
366.650342,-592.164754,1628.453072,-75996.673402
366.652829,-7402.059420,-740.205942,-76456.330700
366.655316,-5625.565159,-1924.535449,-80593.246390
366.657803,-148.041188,4737.318029,-74617.701505
366.660290,-5921.647536,-3404.947333,-79520.712692
366.662777,1480.411884,10066.800811,-72319.415011
366.665264,-5773.606348,-5181.441594,-80593.246390
366.667751,4589.276840,7550.100608,-72166.195912
366.670238,-11251.130318,-3849.070898,-79673.931792
366.672725,7105.977043,7698.141797,-74464.482406
366.675212,14211.954086,-444.123565,-75690.235202
366.677698,6513.812290,-592.164754,-78907.836294
366.680185,12139.377449,3404.947333,-76456.330700
366.682672,3108.864956,-4589.276840,-82738.313784
366.685159,-740.205942,5773.606348,-72932.291410
366.687646,-1036.288319,296.082377,-76915.987999
366.690133,592.164754,444.123565,-74617.701505
366.692620,14211.954086,3256.906145,-75077.358804
366.695107,4737.318029,2072.576638,-75077.358804
366.697594,3701.029710,3108.864956,-78141.740796
366.700081,3108.864956,4737.318029,-76456.330700
366.702567,14508.036463,-740.205942,-72472.634111
366.705032,-8586.388927,0.000000,-77375.645298
366.707496,9474.636058,9622.677246,-74004.825107
366.709960,740.205942,3108.864956,-79520.712692
366.712424,5773.606348,-4885.359217,-76149.892501
366.714888,23834.631332,4145.153275,-71706.538613
366.717353,-14359.995275,-1924.535449,-78141.740796
366.719817,24574.837274,0.000000,-78294.959896
366.722281,-444.123565,3256.906145,-75077.358804
366.724745,5033.400406,3997.112087,-75996.673402
366.727209,12287.418637,1184.329507,-73698.386908
366.729674,-1924.535449,3404.947333,-79827.150892
366.732138,7846.182985,-148.041188,-76915.987999
366.734602,1628.453072,2220.617826,-76609.549800
366.737066,10807.006753,1332.370696,-76915.987999
366.739530,740.205942,2516.700203,-75690.235202
366.741994,-6661.853478,1628.453072,-76456.330700
366.744459,-3849.070898,740.205942,-75077.358804
366.746923,-9770.718434,1776.494261,-77069.207099
366.749387,-4441.235652,3997.112087,-74311.263306
366.751851,7105.977043,-148.041188,-77375.645298
366.754315,-2368.659014,2072.576638,-76762.768900
366.756780,-2664.741391,-3256.906145,-79980.369991
366.759244,-2368.659014,6809.894666,-71400.100414
366.761708,-9622.677246,-2072.576638,-77528.864398
366.764172,-1776.494261,148.041188,-74311.263306
366.766636,21614.013506,-9622.677246,-84423.723880
366.769101,-18061.024985,3108.864956,-79520.712692
366.771565,2516.700203,5625.565159,-74004.825107
366.774029,1184.329507,1924.535449,-75537.016103
366.776493,-9178.553681,-2368.659014,-77988.521696
366.778957,23686.590144,296.082377,-74464.482406
366.781421,-5921.647536,148.041188,-75537.016103
366.783914,592.164754,6513.812290,-75843.454302
366.786406,1184.329507,2220.617826,-74617.701505
366.788899,-6957.935855,2664.741391,-74464.482406
366.791391,5181.441594,-1332.370696,-76149.892501
366.793884,-6069.688724,592.164754,-76762.768900
366.796376,-6809.894666,3552.988522,-74924.139704
366.798869,9770.718434,3552.988522,-74158.044206
366.801361,-8438.347739,2072.576638,-75996.673402
366.803854,4441.235652,3552.988522,-76303.111601
366.806346,-9178.553681,1628.453072,-76149.892501
366.808839,4589.276840,-296.082377,-81052.903688
366.811331,15396.283594,5181.441594,-72779.072310
366.813824,5625.565159,-2220.617826,-76762.768900
366.816316,11695.253884,5181.441594,-74464.482406
366.818809,6513.812290,-2072.576638,-78294.959896
366.821301,592.164754,3404.947333,-76915.987999
366.823794,2368.659014,740.205942,-75077.358804
366.826286,4737.318029,1332.370696,-77528.864398
366.828779,9326.594869,4145.153275,-73851.606007
366.831271,-6217.729913,3552.988522,-77835.302597
366.833764,1332.370696,5181.441594,-70174.347617
366.836256,-14804.118840,6661.853478,-74464.482406
366.838748,7254.018232,-2516.700203,-80899.684589
366.841241,0.000000,2960.823768,-74924.139704
366.843733,-592.164754,-2072.576638,-78907.836294
366.846226,23390.507767,5921.647536,-73851.606007
366.848718,-21762.054695,-2960.823768,-83351.190182
366.851211,15100.201217,5329.482782,-74617.701505
366.853703,-148.041188,1924.535449,-73698.386908
366.856196,-5477.523971,-1480.411884,-80133.589091
366.858688,17024.736666,8142.265362,-75690.235202
366.861181,4885.359217,-148.041188,-78294.959896
366.863673,3701.029710,1776.494261,-73238.729609
366.866166,3552.988522,1924.535449,-77069.207099
366.868658,-2960.823768,2368.659014,-74617.701505
366.871151,12139.377449,888.247130,-77835.302597
366.873643,8438.347739,-444.123565,-78754.617194
366.876136,-7846.182985,3849.070898,-75383.797003
366.878628,-2072.576638,1776.494261,-75690.235202
366.881121,-10955.047942,296.082377,-77222.426198
366.883638,-6957.935855,592.164754,-77682.083497
366.886155,8142.265362,-148.041188,-77528.864398
366.888672,-5921.647536,1332.370696,-74924.139704
366.891189,5033.400406,3849.070898,-74004.825107
366.893706,-14063.912898,2220.617826,-76915.987999
366.896223,6217.729913,1628.453072,-74158.044206
366.898740,-17764.942608,3849.070898,-77375.645298
366.901257,-15248.242405,4885.359217,-82125.437386
366.903774,7698.141797,-4737.318029,-78448.178995
366.906291,6217.729913,3256.906145,-74158.044206
366.908809,740.205942,148.041188,-75690.235202
366.911326,-24722.878463,-1184.329507,-77069.207099
366.913843,23390.507767,6217.729913,-74004.825107
366.916360,-41451.532752,-2812.782580,-81359.341888
366.918877,1628.453072,7402.059420,-79061.055394
366.921394,1480.411884,-2368.659014,-74464.482406
366.923911,-22354.219448,-6365.771101,-82125.437386
366.926428,15248.242405,9326.594869,-71093.662214
366.928945,-15692.365970,-148.041188,-77835.302597
366.931462,-2812.782580,1036.288319,-75690.235202
366.933979,10510.924376,3256.906145,-73238.729609
366.936497,-8142.265362,-296.082377,-77069.207099
366.939014,10214.842000,888.247130,-78448.178995
366.941531,-5181.441594,1332.370696,-76149.892501
366.944048,0.000000,2516.700203,-76303.111601
366.946565,12731.542202,3552.988522,-73085.510509
366.949082,6957.935855,-592.164754,-77528.864398
366.951599,10807.006753,1332.370696,-77988.521696
366.954116,3849.070898,2812.782580,-73698.386908
366.956633,-1924.535449,2516.700203,-76456.330700
366.959150,888.247130,4589.276840,-73851.606007
366.961667,4737.318029,1628.453072,-77528.864398
366.964185,10955.047942,1628.453072,-76456.330700
366.966702,12287.418637,-5033.400406,-78907.836294
366.969219,5181.441594,5773.606348,-68642.156621
366.971736,6365.771101,-3552.988522,-77222.426198
366.974253,1924.535449,1480.411884,-73085.510509
366.976770,17320.819043,4145.153275,-75690.235202
366.979287,-14211.954086,-3404.947333,-83044.751983
366.981804,29756.278868,3256.906145,-75690.235202
366.984340,12731.542202,2664.741391,-71553.319513
366.986875,148.041188,-3552.988522,-79367.493593
366.989411,20281.642811,7105.977043,-70787.224015
366.991946,-9178.553681,-4293.194464,-81206.122788
366.994482,20725.766376,2368.659014,-76609.549800
366.997017,296.082377,3108.864956,-75690.235202
366.999553,1480.411884,-1628.453072,-78907.836294
367.002088,9918.759623,3108.864956,-73698.386908
367.004624,-5329.482782,-2220.617826,-79520.712692
367.007159,9770.718434,5033.400406,-73085.510509
367.009695,1776.494261,2960.823768,-76149.892501
367.012230,-11399.171507,-888.247130,-77069.207099
367.014766,-5181.441594,7254.018232,-72472.634111
367.017301,-2220.617826,740.205942,-77528.864398
367.019837,-10362.883188,3108.864956,-74464.482406
367.022372,5625.565159,1480.411884,-75383.797003
367.024908,-8438.347739,1480.411884,-75996.673402
367.027443,-3108.864956,2516.700203,-76303.111601
367.029979,5625.565159,444.123565,-74464.482406
367.032514,-12879.583391,-148.041188,-79214.274493
367.035050,35677.926404,-2812.782580,-74311.263306
367.037585,-23538.548956,2960.823768,-75996.673402
367.040121,-6661.853478,3108.864956,-78754.617194
367.042656,1480.411884,-740.205942,-76762.768900
367.045192,-6365.771101,5477.523971,-72319.415011
367.047727,-7402.059420,6069.688724,-74311.263306
367.050263,-444.123565,-4737.318029,-79214.274493
367.052799,-7105.977043,-1480.411884,-74770.920605
367.055334,-1184.329507,4737.318029,-74311.263306
367.057870,-2368.659014,-1776.494261,-78907.836294
367.060405,1036.288319,-888.247130,-77375.645298
367.062941,-5181.441594,2220.617826,-75383.797003
367.065476,-6069.688724,2368.659014,-76303.111601
367.068012,10510.924376,3256.906145,-75537.016103
367.070547,-4145.153275,-148.041188,-79061.055394
367.073083,2368.659014,1480.411884,-75383.797003
367.075618,1480.411884,-444.123565,-77222.426198
367.078154,4441.235652,4885.359217,-75690.235202
367.080689,9918.759623,-296.082377,-75383.797003
367.083225,7550.100608,2812.782580,-74464.482406
367.085775,9474.636058,1036.288319,-75077.358804
367.088325,0.000000,888.247130,-76149.892501
367.090876,4737.318029,4293.194464,-74004.825107
367.093426,-1924.535449,-1480.411884,-77835.302597
367.095976,5033.400406,3108.864956,-77222.426198
367.098527,10658.965565,-2960.823768,-77682.083497
367.101077,5773.606348,6957.935855,-73085.510509
367.103627,11991.336260,2664.741391,-78448.178995
367.106177,-7846.182985,2368.659014,-79827.150892
367.108728,-6069.688724,-3701.029710,-77682.083497
367.111278,-592.164754,6957.935855,-76762.768900
367.113828,-4885.359217,6069.688724,-77375.645298
367.116379,4293.194464,-3552.988522,-79520.712692
367.118929,22798.343014,-4589.276840,-75383.797003
367.121479,-5181.441594,4589.276840,-74617.701505
367.124030,8290.306550,-1480.411884,-77528.864398
367.126580,10362.883188,1776.494261,-73545.167808
367.129130,2072.576638,296.082377,-77069.207099
367.131681,18209.066173,740.205942,-76149.892501
367.134231,1184.329507,4737.318029,-73085.510509
367.136781,4441.235652,148.041188,-77375.645298
367.139331,9178.553681,1184.329507,-74770.920605
367.141882,3108.864956,5181.441594,-74158.044206
367.144432,-6217.729913,-3108.864956,-80593.246390
367.146982,-1924.535449,1924.535449,-77528.864398
367.149533,-3997.112087,-1332.370696,-78754.617194
367.152083,-12583.501014,3997.112087,-73391.948708
367.154633,8438.347739,1924.535449,-75843.454302
367.157184,740.205942,1332.370696,-75843.454302
367.159734,-4737.318029,1480.411884,-77222.426198
367.162284,-3552.988522,1036.288319,-74924.139704
367.164835,-14359.995275,1332.370696,-76149.892501
367.167385,-740.205942,1332.370696,-77682.083497
367.169935,-11251.130318,3404.947333,-74770.920605
367.172485,16136.489536,-2220.617826,-78448.178995
367.175036,-28571.949361,1332.370696,-77069.207099
367.177586,22354.219448,1480.411884,-71706.538613
367.180136,3701.029710,15248.242405,-68948.594820
367.182687,-19689.478057,-10658.965565,-85649.476676
367.185237,20873.807564,1332.370696,-75383.797003
367.187799,-16136.489536,-4441.235652,-76609.549800
367.190361,-11843.295072,4589.276840,-76303.111601
367.192924,6661.853478,444.123565,-73851.606007
367.195486,-14656.077652,740.205942,-75843.454302
367.198048,6809.894666,3108.864956,-72166.195912
367.200610,-2368.659014,296.082377,-79061.055394
367.203173,-3256.906145,-1628.453072,-76762.768900
367.205735,-1628.453072,2664.741391,-74464.482406
367.208297,-444.123565,2072.576638,-76609.549800
367.210859,5181.441594,-444.123565,-77835.302597
367.213422,16284.530724,-888.247130,-75690.235202
367.215984,9030.512492,3552.988522,-75690.235202
367.218546,11991.336260,2812.782580,-75843.454302
367.221108,-3256.906145,-888.247130,-77835.302597
367.223670,6069.688724,6957.935855,-73238.729609
367.226233,0.000000,-2516.700203,-77988.521696
367.228795,9030.512492,4293.194464,-75690.235202
367.231357,26203.290347,5477.523971,-72779.072310
367.233919,-14508.036463,1332.370696,-75077.358804
367.236482,6957.935855,7254.018232,-74311.263306
367.239044,16136.489536,-4293.194464,-80133.589091
367.241606,-7846.182985,8142.265362,-75383.797003
367.244168,10362.883188,1036.288319,-79061.055394
367.246731,-2516.700203,6365.771101,-76303.111601
367.249293,-13619.789333,7846.182985,-73698.386908
367.251855,10214.842000,-296.082377,-80286.808190
367.254417,4441.235652,6217.729913,-71859.757712
367.256979,-1184.329507,2368.659014,-76609.549800
367.259542,15840.407159,-592.164754,-77528.864398
367.262104,-3256.906145,7994.224174,-74004.825107
367.264666,8734.430116,-3849.070898,-79980.369991
367.267228,9030.512492,1184.329507,-76762.768900
367.269791,2516.700203,-2368.659014,-78601.398095
367.272353,3849.070898,-1184.329507,-76915.987999
367.274915,0.000000,7550.100608,-72932.291410
367.277477,-6809.894666,-3108.864956,-79980.369991
367.280039,-6069.688724,888.247130,-77375.645298
367.282602,-2960.823768,740.205942,-77069.207099
367.285164,-10807.006753,2960.823768,-74924.139704
367.287726,9030.512492,4293.194464,-75843.454302
367.290298,-8142.265362,1184.329507,-75996.673402
367.292870,-2812.782580,0.000000,-75383.797003
367.295442,6513.812290,-888.247130,-78294.959896
367.298014,7698.141797,-3256.906145,-75690.235202
367.300586,-22206.178260,10955.047942,-73698.386908
367.303157,27979.784608,296.082377,-77682.083497
367.305729,-19985.560434,-3256.906145,-79980.369991
367.308301,19689.478057,296.082377,-72319.415011
367.310873,-11695.253884,3256.906145,-71093.662214
367.313445,3997.112087,-3256.906145,-80593.246390
367.316017,6217.729913,-2812.782580,-75077.358804
367.318588,-12879.583391,-2664.741391,-78601.398095
367.321160,3701.029710,2072.576638,-74464.482406
367.323732,-11695.253884,2812.782580,-76762.768900
367.326304,-740.205942,2664.741391,-75537.016103
367.328876,-8142.265362,444.123565,-73851.606007
367.331447,2664.741391,2368.659014,-77375.645298
367.334019,-1776.494261,-1036.288319,-80899.684589
367.336591,-7550.100608,1332.370696,-76915.987999
367.339163,592.164754,1332.370696,-75996.673402
367.341735,-592.164754,444.123565,-75230.577904
367.344306,14063.912898,-1332.370696,-77069.207099
367.346878,10510.924376,592.164754,-76149.892501
367.349450,8142.265362,3108.864956,-76609.549800
367.352022,3256.906145,2072.576638,-75996.673402
367.354594,-2072.576638,1480.411884,-75383.797003
367.357166,7994.224174,3108.864956,-74464.482406
367.359737,15100.201217,0.000000,-78754.617194
367.362309,17764.942608,-592.164754,-77375.645298
367.364881,-888.247130,3997.112087,-73085.510509
367.367453,6069.688724,1184.329507,-75690.235202
367.370025,-3552.988522,2516.700203,-76915.987999
367.372596,3552.988522,-3552.988522,-79061.055394
367.375168,6513.812290,4737.318029,-75077.358804
367.377740,-16284.530724,4885.359217,-76762.768900
367.380312,4441.235652,1480.411884,-79214.274493
367.382884,11547.212695,-296.082377,-76456.330700
367.385455,17024.736666,-3404.947333,-78141.740796
367.388027,7846.182985,592.164754,-76609.549800
367.390599,1184.329507,1036.288319,-76609.549800
367.393177,3997.112087,-296.082377,-77375.645298
367.395756,4145.153275,8290.306550,-71093.662214
367.398334,9326.594869,-2960.823768,-78141.740796
367.400913,10362.883188,2812.782580,-77375.645298
367.403491,8586.388927,-888.247130,-77988.521696
367.406069,-11103.089130,3701.029710,-74464.482406
367.408648,-1776.494261,1184.329507,-77528.864398
367.411226,-13471.748144,-1184.329507,-78601.398095
367.413804,-10807.006753,2812.782580,-75996.673402
367.416383,11399.171507,1184.329507,-74464.482406
367.418961,-7550.100608,740.205942,-77375.645298
367.421540,9474.636058,5181.441594,-73851.606007
367.424118,-9622.677246,1480.411884,-75843.454302
367.426696,5477.523971,-1924.535449,-79214.274493
367.429275,-20577.725188,2960.823768,-74464.482406
367.431853,-12583.501014,3997.112087,-76762.768900
367.434432,6809.894666,6661.853478,-70480.785816
367.437010,9474.636058,296.082377,-75230.577904
367.439588,8882.471304,4737.318029,-76762.768900
367.442167,-23834.631332,-2368.659014,-79827.150892
367.444745,8882.471304,2516.700203,-74617.701505
367.447323,-1036.288319,1036.288319,-75996.673402
367.449902,-9178.553681,-5329.482782,-81512.560987
367.452480,4293.194464,8438.347739,-72012.976812
367.455059,-8882.471304,-5921.647536,-79827.150892
367.457637,-2812.782580,4737.318029,-76149.892501
367.460215,11251.130318,5329.482782,-71859.757712
367.462794,-12731.542202,-2368.659014,-79061.055394
367.465372,4293.194464,1776.494261,-75537.016103
367.467950,-7402.059420,-4441.235652,-78448.178995
367.470529,592.164754,7402.059420,-73085.510509
367.473107,18653.189738,148.041188,-75690.235202
367.475686,-1332.370696,2368.659014,-75230.577904
367.478264,18801.230927,3997.112087,-74770.920605
367.480842,1924.535449,1184.329507,-76609.549800
367.483421,-3997.112087,2960.823768,-74004.825107
367.485999,6365.771101,296.082377,-77528.864398
367.488578,6069.688724,740.205942,-76609.549800
367.491156,10362.883188,2516.700203,-75383.797003
367.493734,32272.979071,-4145.153275,-72166.195912
367.496318,4441.235652,3849.070898,-75996.673402
367.498902,-15544.324782,2960.823768,-74770.920605
367.501486,17320.819043,3552.988522,-79367.493593
367.504069,-6069.688724,-2960.823768,-78601.398095
367.506653,-41599.573940,888.247130,-80133.589091
367.509237,36122.049970,7846.182985,-73391.948708
367.511821,-148.041188,-2664.741391,-75383.797003
367.514405,9918.759623,148.041188,-79673.931792
367.516988,15100.201217,5773.606348,-71093.662214
367.519572,740.205942,-1628.453072,-78754.617194
367.522156,24278.754898,-740.205942,-76915.987999
367.524740,-13175.665768,1776.494261,-78294.959896
367.527324,2812.782580,-2368.659014,-77222.426198
367.529907,21021.848753,444.123565,-76303.111601
367.532491,-888.247130,2368.659014,-75537.016103
367.535075,-10510.924376,-1036.288319,-79214.274493
367.537659,-7550.100608,6809.894666,-73851.606007
367.540242,-5329.482782,-2368.659014,-79673.931792
367.542826,-7994.224174,3997.112087,-74311.263306
367.545410,5921.647536,-2368.659014,-78294.959896
367.547994,-6365.771101,3997.112087,-75537.016103
367.550578,592.164754,2072.576638,-77835.302597
367.553161,-2664.741391,-1924.535449,-78141.740796
367.555745,-24130.713709,5329.482782,-79520.712692
367.558329,2516.700203,-10066.800811,-81818.999186
367.560913,-11251.130318,3256.906145,-75537.016103
367.563497,9178.553681,-2220.617826,-76609.549800
367.566080,-10214.842000,296.082377,-78141.740796
367.568664,3701.029710,9030.512492,-70327.566716
367.571248,6809.894666,-6661.853478,-73851.606007
367.573832,0.000000,296.082377,-78294.959896
367.576416,9030.512492,740.205942,-78141.740796
367.578999,-21169.889941,-148.041188,-76762.768900
367.581583,2960.823768,1628.453072,-76762.768900
367.584167,-5329.482782,-1924.535449,-77375.645298
367.586751,-3552.988522,5773.606348,-75383.797003
367.589334,4293.194464,-740.205942,-76762.768900
367.591918,-3701.029710,1776.494261,-76609.549800
367.594502,-2516.700203,2516.700203,-75230.577904
367.597086,4441.235652,-296.082377,-76915.987999
367.599674,12139.377449,4145.153275,-73238.729609
367.602262,3552.988522,2516.700203,-74158.044206
367.604849,11103.089130,888.247130,-76303.111601
367.607437,9622.677246,7105.977043,-74311.263306
367.610025,3404.947333,-1480.411884,-77682.083497
367.612613,6809.894666,-1628.453072,-78601.398095
367.615201,10214.842000,2368.659014,-74004.825107
367.617789,592.164754,1036.288319,-77682.083497
367.620376,29460.196492,-1628.453072,-75077.358804
367.622964,15544.324782,-2220.617826,-77375.645298
367.625552,14063.912898,3849.070898,-74311.263306
367.628140,-1036.288319,740.205942,-75996.673402
367.630728,-11399.171507,-3849.070898,-82431.875585
367.633316,34641.638086,148.041188,-76915.987999
367.635903,12139.377449,-1776.494261,-77528.864398
367.638491,5181.441594,7550.100608,-74617.701505
367.641079,4737.318029,-1184.329507,-76915.987999
367.643667,9474.636058,5033.400406,-73391.948708
367.646255,8882.471304,6069.688724,-73391.948708
367.648843,3256.906145,-3256.906145,-80899.684589
367.651430,11399.171507,1036.288319,-78141.740796
367.654018,3701.029710,-148.041188,-78601.398095
367.656606,1480.411884,2368.659014,-73391.948708
367.659194,3108.864956,2072.576638,-75996.673402
367.661782,-13915.871710,-740.205942,-76762.768900
367.664370,-1480.411884,4885.359217,-75843.454302
367.666958,-6513.812290,-2516.700203,-77528.864398
367.669545,-13471.748144,1480.411884,-76456.330700
367.672133,11843.295072,4885.359217,-75230.577904
367.674721,-7105.977043,-1184.329507,-78907.836294
367.677309,-4737.318029,1776.494261,-75843.454302
367.679897,1480.411884,4441.235652,-74311.263306
367.682485,-18801.230927,5477.523971,-74311.263306
367.685072,7550.100608,2516.700203,-78907.836294
367.687660,-10955.047942,444.123565,-77988.521696
367.690248,-740.205942,4145.153275,-75230.577904
367.692836,13471.748144,1184.329507,-74158.044206
367.695424,-16284.530724,5625.565159,-72319.415011
367.698012,-7846.182985,592.164754,-79061.055394
367.700599,2960.823768,-7105.977043,-79520.712692
367.703189,-11399.171507,7698.141797,-71246.881314
367.705779,-296.082377,-1628.453072,-80593.246390
367.708368,-1776.494261,4885.359217,-76149.892501
367.710958,-8734.430116,-4589.276840,-76303.111601
367.713548,5477.523971,5477.523971,-73851.606007
367.716137,-8290.306550,1924.535449,-76149.892501
367.718727,1628.453072,-2220.617826,-79827.150892
367.721316,-4885.359217,6069.688724,-72319.415011
367.723906,5477.523971,-592.164754,-78448.178995
367.726496,10510.924376,3256.906145,-72932.291410
367.729085,6513.812290,3701.029710,-75077.358804
367.731675,14359.995275,888.247130,-76762.768900
367.734265,4589.276840,-2664.741391,-82125.437386
367.736854,5477.523971,2516.700203,-74617.701505
367.739444,-6957.935855,-2220.617826,-76149.892501
367.742033,6809.894666,6217.729913,-74617.701505
367.744623,5477.523971,592.164754,-77835.302597
367.747213,12435.459826,2664.741391,-81359.341888
367.749802,1924.535449,1776.494261,-78294.959896
367.752392,-592.164754,1480.411884,-78448.178995
367.754982,13175.665768,7254.018232,-74464.482406
367.757571,-1776.494261,-6217.729913,-81359.341888
367.760161,4441.235652,7994.224174,-77988.521696
367.762750,4885.359217,1036.288319,-77682.083497
367.765340,-12287.418637,-3849.070898,-76762.768900
367.767930,27535.661042,9030.512492,-71553.319513
367.770519,-1776.494261,-4145.153275,-77682.083497
367.773109,11695.253884,592.164754,-77528.864398
367.775699,-1480.411884,-3108.864956,-78448.178995
367.778288,-2220.617826,4737.318029,-74158.044206
367.780878,18209.066173,2960.823768,-74770.920605
367.783467,-4589.276840,-1480.411884,-76149.892501
367.786057,-5921.647536,148.041188,-78448.178995
367.788647,592.164754,2664.741391,-74770.920605
367.791236,-15988.448347,1332.370696,-77375.645298
367.793826,0.000000,3404.947333,-75230.577904
367.796416,-3701.029710,2516.700203,-75077.358804
367.799005,-148.041188,-888.247130,-79061.055394
367.801595,2072.576638,1036.288319,-76762.768900
367.804184,-19393.395680,2368.659014,-74924.139704
367.806775,-11399.171507,6069.688724,-76149.892501
367.809366,-8734.430116,10362.883188,-70940.443115
367.811957,-6365.771101,148.041188,-82738.313784
367.814548,-4441.235652,-1480.411884,-79520.712692
367.817139,3849.070898,-444.123565,-75843.454302
367.819730,4589.276840,-2664.741391,-75996.673402
367.822321,-17024.736666,2960.823768,-75230.577904
367.824912,4885.359217,7402.059420,-74924.139704
367.827503,-13767.830521,-3256.906145,-80593.246390
367.830094,4737.318029,4885.359217,-76149.892501
367.832685,-592.164754,1332.370696,-74924.139704
367.835276,-16136.489536,-592.164754,-75996.673402
367.837867,12879.583391,2812.782580,-75230.577904
367.840458,-7994.224174,-3404.947333,-79980.369991
367.843049,740.205942,5625.565159,-73851.606007
367.845640,-3701.029710,1480.411884,-74617.701505
367.848231,3997.112087,-1628.453072,-77682.083497
367.850822,15396.283594,5625.565159,-73085.510509
367.853413,6661.853478,148.041188,-77375.645298
367.856004,10807.006753,2516.700203,-75690.235202
367.858595,6365.771101,3552.988522,-74464.482406
367.861186,-740.205942,-592.164754,-76609.549800
367.863777,5921.647536,3997.112087,-73851.606007
367.866368,8438.347739,-3256.906145,-80746.465489
367.868959,12139.377449,-1036.288319,-79520.712692
367.871550,740.205942,4293.194464,-70787.224015
367.874141,11843.295072,-1924.535449,-78448.178995
367.876732,3849.070898,4885.359217,-72779.072310
367.879323,-10066.800811,-4737.318029,-78141.740796
367.881914,296.082377,4441.235652,-77069.207099
367.884505,18505.148550,888.247130,-75537.016103
367.887096,7105.977043,-2664.741391,-76303.111601
367.889689,9326.594869,6957.935855,-73238.729609
367.892282,11695.253884,-2516.700203,-78141.740796
367.894875,3997.112087,592.164754,-78141.740796
367.897468,6069.688724,-1036.288319,-79367.493593
367.900061,3997.112087,5033.400406,-74617.701505
367.902654,2960.823768,592.164754,-76915.987999
367.905247,11843.295072,-2072.576638,-77988.521696
367.907840,2812.782580,5181.441594,-76609.549800
367.910433,-9326.594869,-2368.659014,-77528.864398
367.913026,-7846.182985,5181.441594,-75230.577904
367.915619,-1628.453072,3701.029710,-75537.016103
367.918212,-11103.089130,1036.288319,-75230.577904
367.920805,8734.430116,1184.329507,-77069.207099
367.923398,-6069.688724,-2516.700203,-79367.493593
367.925991,-3997.112087,6957.935855,-74158.044206
367.928584,-5181.441594,5033.400406,-73238.729609
367.931177,9030.512492,-4145.153275,-79214.274493
367.933770,-5181.441594,2072.576638,-76149.892501
367.936363,-7994.224174,-1036.288319,-75996.673402
367.938956,3552.988522,2220.617826,-75690.235202
367.941549,11103.089130,2664.741391,-75996.673402
367.944142,-39823.079680,296.082377,-78601.398095
367.946735,13027.624579,2664.741391,-73391.948708
367.949328,1480.411884,5033.400406,-72472.634111
367.951921,-25759.166782,-2516.700203,-78754.617194
367.954514,7254.018232,5773.606348,-73238.729609
367.957107,-13915.871710,-4441.235652,-78907.836294
367.959700,7550.100608,4589.276840,-75996.673402
367.962293,-3256.906145,2072.576638,-76609.549800
367.964886,-10362.883188,-740.205942,-77528.864398
367.967478,10807.006753,2812.782580,-73085.510509
367.970071,-444.123565,888.247130,-77528.864398
367.972664,18505.148550,444.123565,-77835.302597
367.975257,18801.230927,2368.659014,-75383.797003
367.977850,-592.164754,-148.041188,-77835.302597
367.980443,10955.047942,3849.070898,-74924.139704
367.983036,6217.729913,444.123565,-74464.482406
367.985629,-3404.947333,-1628.453072,-79827.150892
367.988222,19097.313304,2516.700203,-74311.263306
367.990815,5181.441594,4885.359217,-74770.920605
367.993408,9030.512492,4589.276840,-78907.836294
367.996000,4589.276840,-6217.729913,-80440.027290
367.998592,12139.377449,-1924.535449,-78141.740796
368.001185,0.000000,1924.535449,-75843.454302
368.003777,7994.224174,-4441.235652,-81665.780087
368.006370,31532.773129,3997.112087,-71859.757712
368.008962,-3256.906145,1332.370696,-74924.139704
368.011554,17172.777854,4589.276840,-74924.139704
368.014147,6513.812290,-5921.647536,-79061.055394
368.016739,1184.329507,6217.729913,-74311.263306
368.019332,7994.224174,-444.123565,-77682.083497
368.021924,7254.018232,0.000000,-78141.740796
368.024516,8882.471304,-1036.288319,-77988.521696
368.027109,5921.647536,-1776.494261,-77069.207099
368.029701,-11399.171507,5625.565159,-72932.291410
368.032294,-5921.647536,2368.659014,-77528.864398
368.034886,-7698.141797,592.164754,-76303.111601
368.037478,-4293.194464,3256.906145,-74464.482406
368.040071,-4737.318029,-296.082377,-76456.330700
368.042663,5773.606348,2368.659014,-78754.617194
368.045256,5921.647536,4737.318029,-74924.139704
368.047848,-11843.295072,888.247130,-77222.426198
368.050440,-12879.583391,4589.276840,-77069.207099
368.053033,5477.523971,-8882.471304,-83810.847481
368.055625,-11843.295072,3849.070898,-73391.948708
368.058218,6957.935855,3256.906145,-74158.044206
368.060810,4293.194464,1036.288319,-79980.369991
368.063402,-2664.741391,7402.059420,-73085.510509
368.065995,11843.295072,-4293.194464,-74617.701505
368.068587,-8734.430116,3256.906145,-75996.673402
368.071180,-6217.729913,1776.494261,-76915.987999
368.073772,-8586.388927,296.082377,-77069.207099
368.076364,-592.164754,3108.864956,-74617.701505
368.078957,296.082377,740.205942,-75843.454302
368.081549,-6217.729913,592.164754,-77988.521696
368.084141,5625.565159,1332.370696,-73851.606007
368.086734,-9918.759623,-3552.988522,-80133.589091
368.089326,7846.182985,8438.347739,-72932.291410
368.091919,5921.647536,-888.247130,-76149.892501
368.094511,2368.659014,3849.070898,-75996.673402
368.097103,15692.365970,4293.194464,-74004.825107
368.099694,-444.123565,-592.164754,-77988.521696
368.102286,5181.441594,5625.565159,-73391.948708
368.104877,5033.400406,-1036.288319,-76762.768900
368.107469,2960.823768,-1776.494261,-79214.274493
368.110061,12435.459826,592.164754,-76915.987999
368.112652,20725.766376,-1036.288319,-73085.510509
368.115244,8734.430116,0.000000,-77069.207099
368.117835,-4145.153275,1036.288319,-76915.987999
368.120427,24278.754898,-148.041188,-76303.111601
368.123018,2516.700203,740.205942,-75690.235202
368.125610,8290.306550,1776.494261,-79061.055394
368.128202,17024.736666,5625.565159,-72472.634111
368.130793,-3256.906145,1332.370696,-76303.111601
368.133385,25907.207970,444.123565,-75077.358804
368.135976,-4145.153275,2220.617826,-76149.892501
368.138568,888.247130,-3701.029710,-79061.055394
368.141160,15692.365970,7550.100608,-73238.729609
368.143751,1036.288319,1184.329507,-76456.330700
368.146343,11695.253884,-2516.700203,-79520.712692
368.148934,2368.659014,2960.823768,-75230.577904
368.151526,-13323.706956,-888.247130,-76456.330700
368.154117,-8438.347739,8734.430116,-73391.948708
368.156709,-7105.977043,-2220.617826,-78448.178995
368.159301,-7550.100608,2664.741391,-72472.634111
368.161892,7698.141797,592.164754,-75230.577904
368.164484,-8142.265362,1628.453072,-77069.207099
368.167075,-3404.947333,4145.153275,-74770.920605
368.169667,1628.453072,1036.288319,-75843.454302
368.172259,-26055.249158,2516.700203,-80899.684589
368.174850,7994.224174,5033.400406,-77835.302597
368.177442,-11991.336260,3404.947333,-74311.263306
368.180033,4885.359217,-2812.782580,-79061.055394
368.182625,6513.812290,740.205942,-75230.577904
368.185216,-14508.036463,888.247130,-74770.920605
368.187808,-9474.636058,-888.247130,-75230.577904
368.190400,-10510.924376,4589.276840,-76149.892501
368.192991,-4737.318029,2516.700203,-78294.959896
368.195583,-9622.677246,0.000000,-76456.330700
368.198174,-888.247130,5773.606348,-71859.757712
368.200765,-2812.782580,-4589.276840,-80899.684589
368.203356,4145.153275,5625.565159,-74617.701505
368.205947,-9474.636058,-1332.370696,-78907.836294
368.208538,1332.370696,4145.153275,-75537.016103
368.211129,18061.024985,-740.205942,-77222.426198
368.213720,2516.700203,740.205942,-76762.768900
368.216311,13471.748144,4885.359217,-73851.606007
368.218902,8142.265362,2960.823768,-77222.426198
368.221493,-5181.441594,1776.494261,-75843.454302
368.224084,1924.535449,5773.606348,-74158.044206
368.226675,10510.924376,-2812.782580,-77528.864398
368.229266,24870.919651,-4589.276840,-80133.589091
368.231857,5477.523971,8290.306550,-67876.061123
368.234448,2664.741391,-1036.288319,-77069.207099
368.237038,6069.688724,16728.654289,-68182.499322
368.239629,-13767.830521,-2220.617826,-79827.150892
368.242220,19245.354492,-3108.864956,-81512.560987
368.244811,27535.661042,4885.359217,-70634.004916
368.247402,-13915.871710,740.205942,-80899.684589
368.249993,28423.908173,5773.606348,-73391.948708
368.252584,-6069.688724,-2516.700203,-75537.016103
368.255175,14063.912898,2368.659014,-75383.797003
368.257766,10214.842000,0.000000,-74770.920605
368.260357,-7846.182985,1184.329507,-76915.987999
368.262948,22354.219448,5773.606348,-74924.139704
368.265539,1036.288319,-444.123565,-76303.111601
368.268130,-3256.906145,444.123565,-77069.207099
368.270721,-4589.276840,3404.947333,-74004.825107
368.273312,-14804.118840,740.205942,-78754.617194
368.275903,2664.741391,2960.823768,-75077.358804
368.278493,-12731.542202,1628.453072,-74617.701505
368.281084,5329.482782,1184.329507,-79061.055394
368.283675,3552.988522,3552.988522,-75230.577904
368.286266,-15692.365970,-592.164754,-77988.521696
368.288857,19689.478057,-3701.029710,-74004.825107
368.291448,-16876.695478,6809.894666,-73851.606007
368.294039,-3108.864956,1628.453072,-76303.111601
368.296630,6365.771101,-3108.864956,-79061.055394
368.299221,11991.336260,-296.082377,-72625.853210
368.301812,-10807.006753,444.123565,-77682.083497
368.304401,-5329.482782,444.123565,-77988.521696
368.306991,-8142.265362,-1332.370696,-78754.617194
368.309582,-3108.864956,-1776.494261,-78601.398095
368.312172,-2368.659014,3997.112087,-75537.016103
368.314762,-13323.706956,5033.400406,-75690.235202
368.317352,10214.842000,-592.164754,-76609.549800
368.319942,-9030.512492,5329.482782,-71553.319513
368.322532,148.041188,-5773.606348,-80746.465489
368.325123,296.082377,6513.812290,-75537.016103
368.327713,5773.606348,-592.164754,-77528.864398
368.330303,11843.295072,0.000000,-75077.358804
368.332893,17468.860231,1628.453072,-75537.016103
368.335483,7550.100608,-1924.535449,-78907.836294
368.338074,4145.153275,4293.194464,-73545.167808
368.340664,3552.988522,1184.329507,-75843.454302
368.343254,5921.647536,-1332.370696,-76456.330700
368.345844,17024.736666,4737.318029,-74311.263306
368.348434,20281.642811,-3404.947333,-72166.195912
368.351024,-5921.647536,1628.453072,-80133.589091
368.353615,5625.565159,2960.823768,-79367.493593
368.356205,3997.112087,5181.441594,-77222.426198
368.358795,-10510.924376,4885.359217,-74770.920605
368.361385,11991.336260,-8586.388927,-81512.560987
368.363975,20725.766376,740.205942,-76915.987999
368.366566,888.247130,2220.617826,-76915.987999
368.369156,11991.336260,-1480.411884,-77069.207099
368.371746,9474.636058,3108.864956,-75077.358804
368.374336,-1184.329507,-2812.782580,-79827.150892
368.376926,6809.894666,0.000000,-77528.864398
368.379516,13767.830521,6513.812290,-74464.482406
368.382107,-2960.823768,-148.041188,-75996.673402
368.384697,-7402.059420,-1628.453072,-79214.274493
368.387287,-888.247130,1480.411884,-76456.330700
368.389877,-15692.365970,3997.112087,-77835.302597
368.392467,888.247130,2368.659014,-75996.673402
368.395058,-1480.411884,-296.082377,-75996.673402
368.397648,1628.453072,5181.441594,-74617.701505
368.400238,-148.041188,1776.494261,-76762.768900
368.402828,-23686.590144,3404.947333,-75690.235202
368.405418,17320.819043,-3849.070898,-77069.207099
368.408007,1036.288319,-1184.329507,-74464.482406
368.410595,-16432.571912,2368.659014,-77682.083497
368.413183,24574.837274,-3552.988522,-80593.246390
368.415771,-10066.800811,888.247130,-74924.139704
368.418359,-4441.235652,3849.070898,-77222.426198
368.420948,-13175.665768,4145.153275,-73238.729609
368.423536,-26351.331535,296.082377,-80286.808190
368.426124,17320.819043,-1184.329507,-78601.398095
368.428712,-18801.230927,2664.741391,-74770.920605
368.431300,3997.112087,1184.329507,-77835.302597
368.433889,-5773.606348,296.082377,-74311.263306
368.436477,-2812.782580,888.247130,-76456.330700
368.439065,-8734.430116,1332.370696,-75383.797003
368.441653,7550.100608,1332.370696,-80133.589091
368.444241,16136.489536,2516.700203,-75077.358804
368.446830,2368.659014,2072.576638,-73391.948708
368.449418,18061.024985,2220.617826,-76762.768900
368.452006,3849.070898,-1924.535449,-79061.055394
368.454594,-2220.617826,3701.029710,-74617.701505
368.457182,6661.853478,3404.947333,-74464.482406
368.459771,7254.018232,-2812.782580,-79367.493593
368.462359,17616.901420,5773.606348,-70174.347617
368.464947,11547.212695,888.247130,-75996.673402
368.467535,5329.482782,0.000000,-79367.493593
368.470123,5625.565159,3701.029710,-76303.111601
368.472712,-2072.576638,-592.164754,-75383.797003
368.475300,4293.194464,-592.164754,-78448.178995
368.477888,18653.189738,-1184.329507,-78294.959896
368.480476,8142.265362,740.205942,-76609.549800
368.483064,9918.759623,296.082377,-76303.111601
368.485653,1332.370696,1924.535449,-74311.263306
368.488241,6069.688724,-592.164754,-77069.207099
368.490829,10955.047942,2220.617826,-75996.673402
368.493417,6217.729913,5477.523971,-76149.892501
368.496005,6069.688724,-888.247130,-78448.178995
368.498594,-4145.153275,3552.988522,-73698.386908
368.501182,-12139.377449,3256.906145,-74158.044206
368.503770,-6513.812290,2072.576638,-75537.016103
368.506358,-3256.906145,1332.370696,-78141.740796
368.508946,-2072.576638,-1480.411884,-78601.398095
368.511533,5773.606348,4145.153275,-75843.454302
368.514120,-6365.771101,2516.700203,-76762.768900
368.516707,-14063.912898,592.164754,-76609.549800
368.519294,7846.182985,-1628.453072,-77835.302597
368.521880,-9326.594869,3108.864956,-75383.797003
368.524467,-6809.894666,2368.659014,-75843.454302
368.527054,5921.647536,-888.247130,-77375.645298
368.529641,8586.388927,1776.494261,-76609.549800
368.532228,-26351.331535,4737.318029,-74924.139704
368.534815,8142.265362,0.000000,-77988.521696
368.537401,-12731.542202,1332.370696,-73391.948708
368.539988,-19837.519246,4737.318029,-76303.111601
368.542575,3997.112087,-1776.494261,-76609.549800
368.545162,-12435.459826,1924.535449,-77069.207099
368.547749,11251.130318,-2220.617826,-79980.369991
368.550336,-7254.018232,4885.359217,-73238.729609
368.552922,-7994.224174,2072.576638,-74464.482406
368.555509,6365.771101,-296.082377,-77988.521696
368.558096,9030.512492,7550.100608,-73698.386908
368.560683,8290.306550,-4885.359217,-80899.684589
368.563270,12583.501014,5477.523971,-72932.291410
368.565857,9326.594869,1332.370696,-77835.302597
368.568443,-3997.112087,2960.823768,-74617.701505
368.571030,4589.276840,1628.453072,-75077.358804
368.573617,-3256.906145,-1924.535449,-79367.493593
368.576204,3404.947333,6217.729913,-78294.959896
368.578791,5329.482782,740.205942,-77528.864398
368.581378,12879.583391,-2072.576638,-76303.111601
368.583964,8586.388927,0.000000,-73698.386908
368.586551,-3552.988522,-740.205942,-75690.235202
368.589138,18801.230927,3849.070898,-70480.785816
368.591725,5773.606348,2812.782580,-75537.016103
368.594312,4293.194464,296.082377,-77682.083497
368.596899,15248.242405,3997.112087,-72012.976812
368.599485,9326.594869,888.247130,-75230.577904
368.602072,7846.182985,592.164754,-76609.549800
368.604659,5033.400406,1332.370696,-75383.797003
368.607246,9622.677246,148.041188,-76762.768900
368.609833,8438.347739,1184.329507,-77682.083497
368.612420,-4885.359217,-1036.288319,-77835.302597
368.615004,-9326.594869,2516.700203,-75690.235202
368.617589,-6217.729913,2220.617826,-77682.083497
368.620173,-7698.141797,148.041188,-76762.768900
368.622758,-1628.453072,3997.112087,-74464.482406
368.625343,5181.441594,148.041188,-77222.426198
368.627927,-4737.318029,3849.070898,-77375.645298
368.630512,-1776.494261,-4293.194464,-78141.740796
368.633096,-13323.706956,5329.482782,-71246.881314
368.635681,-3701.029710,3849.070898,-72625.853210
368.638266,-2812.782580,-2960.823768,-78907.836294
368.640850,24722.878463,6513.812290,-74617.701505
368.643435,-17172.777854,-3108.864956,-79673.931792
368.646019,23094.425390,7105.977043,-71859.757712
368.648604,-21021.848753,6661.853478,-70940.443115
368.651189,-10807.006753,-4293.194464,-81359.341888
368.653773,6809.894666,8438.347739,-71400.100414
368.656358,-24426.796086,888.247130,-75383.797003
368.658942,14359.995275,1184.329507,-76303.111601
368.661527,-6957.935855,4293.194464,-73238.729609
368.664112,-5921.647536,-148.041188,-76915.987999
368.666696,1628.453072,-148.041188,-75690.235202
368.669281,3997.112087,296.082377,-81665.780087
368.671865,11399.171507,3701.029710,-74311.263306
368.674450,5773.606348,3849.070898,-74311.263306
368.677035,11399.171507,-296.082377,-77835.302597
368.679619,7994.224174,5181.441594,-78754.617194
368.682204,-3849.070898,1332.370696,-74617.701505
368.684788,7698.141797,888.247130,-76149.892501
368.687373,21465.972318,296.082377,-75537.016103
368.689958,-11991.336260,3256.906145,-73238.729609
368.692542,23242.466579,5921.647536,-72625.853210
368.695127,-5921.647536,-5773.606348,-81665.780087
368.697711,17616.901420,3849.070898,-72319.415011
368.700296,-4293.194464,1628.453072,-76149.892501
368.702881,888.247130,-1184.329507,-76915.987999
368.705465,23538.548956,2220.617826,-79061.055394
368.708050,1776.494261,-2072.576638,-78601.398095
368.710634,7105.977043,5181.441594,-72932.291410
368.713219,7698.141797,740.205942,-75537.016103
368.715804,3701.029710,-296.082377,-77222.426198
368.718387,5181.441594,3552.988522,-74464.482406
368.720969,8142.265362,148.041188,-77528.864398
368.723552,3552.988522,1332.370696,-79673.931792
368.726135,-9030.512492,148.041188,-75996.673402
368.728718,-17616.901420,0.000000,-76303.111601
368.731301,2960.823768,5033.400406,-74770.920605
368.733884,-11843.295072,-1776.494261,-77222.426198
368.736467,9622.677246,1184.329507,-77528.864398
368.739050,2220.617826,5477.523971,-75230.577904
368.741633,-7105.977043,-2220.617826,-79061.055394
368.744216,17024.736666,-296.082377,-71859.757712
368.746799,-13915.871710,148.041188,-75383.797003
368.749382,-4441.235652,3108.864956,-74311.263306
368.751964,-4145.153275,2220.617826,-77988.521696
368.754547,2960.823768,2960.823768,-74464.482406
368.757130,-2664.741391,2960.823768,-73391.948708
368.759713,-4737.318029,-4737.318029,-77069.207099
368.762296,-5329.482782,-148.041188,-76456.330700
368.764879,-11843.295072,-1776.494261,-80746.465489
368.767462,-3701.029710,296.082377,-76609.549800
368.770045,-7402.059420,4589.276840,-74004.825107
368.772628,8882.471304,-1184.329507,-78141.740796
368.775211,-5181.441594,5181.441594,-72779.072310
368.777794,2516.700203,-2220.617826,-77682.083497
368.780377,-1480.411884,2960.823768,-76456.330700
368.782959,19541.436869,3108.864956,-75230.577904
368.785542,4589.276840,740.205942,-75077.358804
368.788125,13767.830521,1332.370696,-77835.302597
368.790708,10955.047942,-1924.535449,-79673.931792
368.793291,-8438.347739,2368.659014,-74158.044206
368.795874,16580.613101,1628.453072,-74924.139704
368.798457,18209.066173,888.247130,-73851.606007
368.801040,-740.205942,2812.782580,-75996.673402
368.803623,25463.084405,2072.576638,-72166.195912
368.806206,-148.041188,-6069.688724,-78294.959896
368.808789,6957.935855,1924.535449,-73085.510509
368.811372,-9178.553681,3849.070898,-76149.892501
368.813955,296.082377,-1776.494261,-80593.246390
368.816537,19689.478057,1628.453072,-74311.263306
368.819120,592.164754,0.000000,-77375.645298
368.821702,7254.018232,4589.276840,-72932.291410
368.824283,8882.471304,-1628.453072,-77375.645298
368.826865,-3552.988522,2072.576638,-75843.454302
368.829446,18801.230927,2220.617826,-76609.549800
368.832027,-740.205942,592.164754,-76303.111601
368.834609,-6365.771101,5329.482782,-72625.853210
368.837190,-6809.894666,2368.659014,-75996.673402
368.839772,-9326.594869,-444.123565,-81052.903688
368.842353,-3997.112087,740.205942,-76915.987999
368.844935,-6661.853478,1332.370696,-75383.797003
368.847516,3256.906145,2072.576638,-76456.330700
368.850097,8142.265362,1036.288319,-75537.016103
368.852679,3701.029710,-740.205942,-75537.016103
368.855260,-10807.006753,8438.347739,-72625.853210
368.857842,8586.388927,-148.041188,-79520.712692
368.860423,-37306.379477,4737.318029,-76915.987999
368.863004,29312.155303,3701.029710,-75077.358804
368.865586,-20577.725188,1628.453072,-76303.111601
368.868167,-19689.478057,2812.782580,-76609.549800
368.870749,10362.883188,1036.288319,-77988.521696
368.873330,-9918.759623,3849.070898,-72932.291410
368.875911,444.123565,1480.411884,-74617.701505
368.878493,-1776.494261,1184.329507,-78141.740796
368.881074,-3256.906145,-1480.411884,-80593.246390
368.883656,4441.235652,2812.782580,-75537.016103
368.886237,-9178.553681,1480.411884,-73545.167808
368.888819,5181.441594,-1332.370696,-77222.426198
368.891400,14211.954086,7402.059420,-72012.976812
368.893981,8438.347739,-888.247130,-75230.577904
368.896563,11399.171507,4441.235652,-75690.235202
368.899144,10955.047942,1776.494261,-77528.864398
368.901726,-3849.070898,444.123565,-77222.426198
368.904307,2664.741391,2072.576638,-74158.044206
368.906888,-1332.370696,-2516.700203,-78141.740796
368.909470,-2220.617826,10807.006753,-75383.797003
368.912051,18505.148550,2960.823768,-75996.673402
368.914633,-2516.700203,-1332.370696,-79673.931792
368.917214,19689.478057,-1776.494261,-78754.617194
368.919796,-15840.407159,1628.453072,-77835.302597
368.922377,-444.123565,1332.370696,-74924.139704
368.924957,16728.654289,592.164754,-75690.235202
368.927537,4737.318029,-1480.411884,-78141.740796
368.930118,11399.171507,7402.059420,-71706.538613
368.932698,12879.583391,-4441.235652,-78294.959896
368.935278,7698.141797,740.205942,-77375.645298
368.937858,5477.523971,2516.700203,-74311.263306
368.940438,-2664.741391,-888.247130,-77375.645298
368.943019,-1332.370696,7550.100608,-73238.729609
368.945599,-5181.441594,-3404.947333,-79673.931792
368.948179,-11695.253884,2368.659014,-75383.797003
368.950759,-444.123565,5329.482782,-73238.729609
368.953339,-13323.706956,-1184.329507,-77528.864398
368.955919,6513.812290,3256.906145,-75077.358804
368.958500,-3552.988522,888.247130,-77528.864398
368.961080,1184.329507,444.123565,-79061.055394
368.963660,5625.565159,-1924.535449,-72779.072310
368.966240,-18949.272115,-3701.029710,-78907.836294
368.968820,11695.253884,7402.059420,-71246.881314
368.971401,-23538.548956,-888.247130,-77528.864398
368.973981,27535.661042,-1628.453072,-81512.560987
368.976561,3849.070898,5033.400406,-70787.224015
368.979141,-23538.548956,3997.112087,-77988.521696
368.981721,16136.489536,2960.823768,-75690.235202
368.984302,-31976.896694,148.041188,-76762.768900
368.986882,-5625.565159,5625.565159,-77069.207099
368.989462,10362.883188,2960.823768,-76303.111601
368.992042,-14211.954086,296.082377,-76456.330700
368.994622,2960.823768,2516.700203,-73851.606007
368.997203,-740.205942,3108.864956,-75690.235202
368.999783,14508.036463,-1776.494261,-79520.712692
369.002363,7698.141797,-740.205942,-77222.426198
369.004943,13767.830521,2960.823768,-74311.263306
369.007522,4589.276840,4293.194464,-73391.948708
369.010101,-2812.782580,1776.494261,-75383.797003
369.012680,2664.741391,-592.164754,-78601.398095
369.015259,-6809.894666,2664.741391,-76456.330700
369.017837,14063.912898,-1184.329507,-82125.437386
369.020416,5921.647536,1480.411884,-79061.055394
369.022995,2220.617826,-1332.370696,-78141.740796
369.025574,3997.112087,8586.388927,-73391.948708
369.028153,2368.659014,-1184.329507,-76915.987999
369.030732,-444.123565,-3552.988522,-77528.864398
369.033311,15248.242405,4885.359217,-74311.263306
369.035890,9474.636058,-2664.741391,-77222.426198
369.038468,16432.571912,2812.782580,-74770.920605
369.041047,4885.359217,-3552.988522,-78754.617194
369.043626,-9178.553681,3997.112087,-73545.167808
369.046205,16284.530724,2072.576638,-72932.291410
369.048784,1924.535449,-1924.535449,-79061.055394
369.051363,-1184.329507,8438.347739,-72012.976812
369.053942,3997.112087,-1480.411884,-77375.645298
369.056521,-19393.395680,4737.318029,-75537.016103
369.059100,888.247130,3404.947333,-76915.987999
369.061678,-10955.047942,-444.123565,-74770.920605
369.064257,4441.235652,4441.235652,-75996.673402
369.066836,6217.729913,-444.123565,-77528.864398
369.069415,8142.265362,-1628.453072,-76762.768900
369.071994,-7254.018232,6957.935855,-69255.033019
369.074573,-6809.894666,8142.265362,-77069.207099
369.077152,-16876.695478,3404.947333,-75537.016103
369.079731,-15988.448347,-1332.370696,-81206.122788
369.082309,30496.484810,2072.576638,-74004.825107
369.084888,-21614.013506,-444.123565,-74464.482406
369.087467,592.164754,2368.659014,-74617.701505
369.090046,-12139.377449,4737.318029,-74617.701505
369.092625,-6365.771101,-1628.453072,-77375.645298
369.095204,7105.977043,1332.370696,-76915.987999
369.097783,-12731.542202,1184.329507,-77835.302597
369.100362,-3256.906145,-740.205942,-75996.673402
369.102940,3404.947333,4737.318029,-73238.729609
369.105519,5477.523971,-1776.494261,-79673.931792
369.108098,13767.830521,3701.029710,-75230.577904
369.110641,14063.912898,740.205942,-75537.016103
369.113183,2664.741391,-296.082377,-77988.521696
369.115725,17616.901420,4589.276840,-74617.701505
369.118268,-8586.388927,1480.411884,-74770.920605
369.120810,15396.283594,2072.576638,-76915.987999
369.123352,22946.384202,-592.164754,-78141.740796
369.125895,592.164754,1480.411884,-76609.549800
369.128437,2220.617826,5773.606348,-71553.319513
369.130979,6217.729913,-2368.659014,-78448.178995
369.133522,7550.100608,296.082377,-76609.549800
369.136064,-11251.130318,-888.247130,-80746.465489
369.138607,4293.194464,3552.988522,-75690.235202
369.141149,17764.942608,1184.329507,-76303.111601
369.143691,1332.370696,740.205942,-76149.892501
369.146234,8882.471304,1184.329507,-77528.864398
369.148776,9030.512492,2220.617826,-74770.920605
369.151318,4589.276840,0.000000,-76149.892501
369.153861,8586.388927,2960.823768,-74617.701505
369.156403,296.082377,3108.864956,-77375.645298
369.158946,-7550.100608,-444.123565,-78294.959896
369.161488,-5033.400406,1628.453072,-75996.673402
369.164030,-7550.100608,4885.359217,-73238.729609
369.166573,-5921.647536,2072.576638,-75996.673402
369.169115,1480.411884,-1480.411884,-77375.645298
369.171657,-5033.400406,-444.123565,-79827.150892
369.174200,-12583.501014,1480.411884,-77988.521696
369.176742,6513.812290,-3552.988522,-76149.892501
369.179284,-12139.377449,3256.906145,-73851.606007
369.181827,296.082377,-1036.288319,-75843.454302
369.184369,-21317.931130,6661.853478,-75077.358804
369.186912,25611.125593,-8142.265362,-80593.246390
369.189454,3256.906145,5329.482782,-71706.538613
369.191996,-10807.006753,740.205942,-75996.673402
369.194539,-4145.153275,-1924.535449,-79061.055394
369.197081,-14508.036463,1776.494261,-77069.207099
369.199623,-1776.494261,-3108.864956,-80593.246390
369.202166,4441.235652,8586.388927,-73851.606007
369.204708,-6957.935855,444.123565,-76303.111601
369.207250,1184.329507,-1480.411884,-75843.454302
369.209793,2368.659014,5625.565159,-74770.920605
369.212341,13471.748144,-2812.782580,-79980.369991
369.214889,9918.759623,6365.771101,-73545.167808
369.217437,7698.141797,-1776.494261,-79367.493593
369.219985,12287.418637,148.041188,-77988.521696
369.222534,5033.400406,1924.535449,-76762.768900
369.225082,12879.583391,-1924.535449,-78448.178995
369.227630,17024.736666,-2960.823768,-74158.044206
369.230178,4885.359217,888.247130,-77528.864398
369.232726,12287.418637,296.082377,-74924.139704
369.235274,30200.402434,2072.576638,-74004.825107
369.237822,-17172.777854,-1036.288319,-78601.398095
369.240371,25315.043216,592.164754,-72319.415011
369.242919,16284.530724,5329.482782,-72932.291410
369.245467,-4589.276840,-1924.535449,-79061.055394
369.248015,21021.848753,1184.329507,-79214.274493
369.250563,-444.123565,1184.329507,-77222.426198
369.253111,888.247130,1480.411884,-74464.482406
369.255659,10807.006753,3108.864956,-73085.510509
369.258207,-2072.576638,-2812.782580,-78754.617194
369.260756,-444.123565,10066.800811,-71706.538613
369.263304,-11843.295072,-1036.288319,-77222.426198
369.265852,-15840.407159,1332.370696,-77988.521696
369.268400,-1628.453072,5477.523971,-74617.701505
369.270948,-8882.471304,-592.164754,-77069.207099
369.273496,8142.265362,2220.617826,-77835.302597
369.276044,-1628.453072,296.082377,-78141.740796
369.278593,-19393.395680,5773.606348,-77835.302597
369.281141,-5921.647536,-1332.370696,-78754.617194
369.283689,-11695.253884,-5625.565159,-84270.504780
369.286237,296.082377,7994.224174,-72625.853210
369.288785,1480.411884,-2664.741391,-79367.493593
369.291333,-20281.642811,9770.718434,-76609.549800
369.293881,-3108.864956,2072.576638,-78754.617194
369.296430,-8438.347739,1628.453072,-75383.797003
369.298978,-11103.089130,2220.617826,-74770.920605
369.301526,-1480.411884,1332.370696,-79367.493593
369.304074,-8882.471304,444.123565,-79827.150892
369.306622,3404.947333,2220.617826,-75996.673402
369.309170,-6217.729913,2664.741391,-74464.482406
369.311718,8882.471304,1924.535449,-76762.768900
369.314268,10510.924376,1924.535449,-75843.454302
369.316820,6217.729913,740.205942,-78754.617194
369.319373,18209.066173,5329.482782,-72625.853210
369.321925,1628.453072,-1480.411884,-78448.178995
369.324478,3849.070898,4589.276840,-73085.510509
369.327030,148.041188,444.123565,-76456.330700
369.329583,-7698.141797,296.082377,-80286.808190
369.332135,32421.020260,-6957.935855,-76762.768900
369.334687,-740.205942,-6069.688724,-81665.780087
369.337240,18061.024985,9326.594869,-71246.881314
369.339792,20133.601622,2516.700203,-73238.729609
369.342345,-22946.384202,-592.164754,-80593.246390
369.344897,38046.585419,4441.235652,-75230.577904
369.347450,-22206.178260,-888.247130,-78601.398095
369.350002,33457.308578,4293.194464,-75383.797003
369.352555,-7254.018232,-1036.288319,-76149.892501
369.355107,13027.624579,4441.235652,-79214.274493
369.357659,19837.519246,2516.700203,-71093.662214
369.360212,-5477.523971,-2220.617826,-78754.617194
369.362764,15248.242405,5329.482782,-75077.358804
369.365317,-17320.819043,-148.041188,-78294.959896
369.367869,-5921.647536,2072.576638,-75230.577904
369.370422,-5329.482782,-1332.370696,-77069.207099
369.372974,-13323.706956,5033.400406,-74464.482406
369.375527,2072.576638,740.205942,-76915.987999
369.378079,-3108.864956,1924.535449,-76456.330700
369.380632,2368.659014,0.000000,-77988.521696
369.383184,-17320.819043,3997.112087,-79673.931792
369.385736,-12731.542202,2220.617826,-76303.111601
369.388289,-3256.906145,296.082377,-77988.521696
369.390841,-18209.066173,4145.153275,-74924.139704
369.393394,14063.912898,-2072.576638,-78448.178995
369.395946,4885.359217,-592.164754,-74924.139704
369.398499,-9030.512492,4145.153275,-74617.701505
369.401051,-12435.459826,-296.082377,-74924.139704
369.403604,-4737.318029,740.205942,-78907.836294
369.406156,-6809.894666,4885.359217,-76762.768900
369.408708,148.041188,-1332.370696,-77682.083497
369.411261,-3849.070898,5033.400406,-74617.701505
369.413813,4885.359217,148.041188,-77222.426198
369.416369,5625.565159,444.123565,-75690.235202
369.418925,11547.212695,4737.318029,-73391.948708
369.421481,22354.219448,-148.041188,-78448.178995
369.424037,3552.988522,-592.164754,-81052.903688
369.426593,9918.759623,2220.617826,-75843.454302
369.429149,4441.235652,1184.329507,-74004.825107
369.431705,17912.983796,1628.453072,-74924.139704
369.434261,-5921.647536,7994.224174,-72625.853210
369.436816,12879.583391,1480.411884,-78907.836294
369.439372,9178.553681,-740.205942,-78141.740796
369.441928,6661.853478,3701.029710,-77988.521696
369.444484,-148.041188,4441.235652,-73085.510509
369.447040,-2812.782580,1776.494261,-78754.617194
369.449596,18949.272115,4737.318029,-75996.673402
369.452152,5625.565159,3256.906145,-75537.016103
369.454708,4885.359217,-1332.370696,-76762.768900
369.457264,21021.848753,5181.441594,-74004.825107
369.459820,-5773.606348,-888.247130,-78141.740796
369.462375,11103.089130,-148.041188,-79367.493593
369.464931,-740.205942,740.205942,-77835.302597
369.467487,-9918.759623,296.082377,-78294.959896
369.470043,-2072.576638,3849.070898,-75077.358804
369.472599,-1924.535449,-1332.370696,-77528.864398
369.475155,-7846.182985,2516.700203,-77528.864398
369.477711,2516.700203,1480.411884,-76456.330700
369.480267,-8142.265362,888.247130,-79061.055394
369.482823,-6365.771101,4737.318029,-76609.549800
369.485379,-5329.482782,-5329.482782,-76609.549800
369.487934,-6069.688724,-1628.453072,-77069.207099
369.490490,5329.482782,888.247130,-75230.577904
369.493046,-3256.906145,888.247130,-75077.358804
369.495602,11547.212695,1332.370696,-73085.510509
369.498158,2072.576638,-1332.370696,-76149.892501
369.500714,-10955.047942,1184.329507,-77988.521696
369.503270,-7550.100608,-3701.029710,-78141.740796
369.505826,-4589.276840,5181.441594,-74617.701505
369.508382,-9178.553681,1036.288319,-77528.864398
369.510938,2516.700203,2960.823768,-74464.482406
369.513493,-8290.306550,3552.988522,-73545.167808
369.516049,10807.006753,-444.123565,-78294.959896
369.518608,10066.800811,4293.194464,-74924.139704
369.521167,8290.306550,2368.659014,-77835.302597
369.523726,14952.160028,888.247130,-75843.454302
369.526285,2664.741391,2960.823768,-74924.139704
369.528844,1924.535449,-2516.700203,-78448.178995
369.531403,9178.553681,6217.729913,-73851.606007
369.533962,22058.137072,1628.453072,-74311.263306
369.536521,888.247130,5033.400406,-75537.016103
369.539080,3701.029710,8882.471304,-77069.207099
369.541639,12879.583391,-5625.565159,-77528.864398
369.544198,7105.977043,3701.029710,-71093.662214
369.546757,16136.489536,-296.082377,-72012.976812
369.549316,5477.523971,296.082377,-74924.139704
369.551875,8882.471304,6957.935855,-71706.538613
369.554434,17468.860231,-1184.329507,-77682.083497
369.556993,6217.729913,4441.235652,-75690.235202
369.559552,10214.842000,-148.041188,-76762.768900
369.562111,6661.853478,1776.494261,-76609.549800
369.564670,-740.205942,3108.864956,-73698.386908
369.567229,-2812.782580,-2072.576638,-79214.274493
369.569788,-7698.141797,6513.812290,-74464.482406
369.572347,-6365.771101,-3701.029710,-79061.055394
369.574906,-6217.729913,5181.441594,-73851.606007
369.577464,-5181.441594,2072.576638,-74311.263306
369.580023,6217.729913,-2072.576638,-77988.521696
369.582582,-2516.700203,2072.576638,-78754.617194
369.585141,-17320.819043,3997.112087,-76915.987999
369.587700,-6069.688724,444.123565,-72472.634111
369.590259,-13767.830521,5033.400406,-77988.521696
369.592818,22502.260637,5181.441594,-75077.358804
369.595377,-35529.885216,296.082377,-82125.437386
369.597936,24574.837274,-2072.576638,-75537.016103
369.600495,-9770.718434,4441.235652,-67569.622924
369.603054,-8586.388927,-592.164754,-80593.246390
369.605613,4293.194464,1332.370696,-72472.634111
369.608172,-16432.571912,-1332.370696,-79980.369991
369.610731,12287.418637,3256.906145,-74617.701505
369.613290,-12879.583391,592.164754,-74311.263306
369.615849,2960.823768,3256.906145,-74924.139704
369.618408,11103.089130,-1924.535449,-77375.645298
369.620936,9326.594869,2368.659014,-77682.083497
369.623464,13915.871710,-1332.370696,-78141.740796
369.625991,3849.070898,2368.659014,-75230.577904
369.628519,9918.759623,3997.112087,-74464.482406
369.631047,3701.029710,148.041188,-76303.111601
369.633575,-8882.471304,5773.606348,-74924.139704
369.636103,15396.283594,-296.082377,-81052.903688
369.638631,3108.864956,-1332.370696,-78754.617194
369.641158,9474.636058,5477.523971,-74617.701505
369.643686,-6661.853478,3256.906145,-79827.150892
369.646214,22354.219448,-1776.494261,-77528.864398
369.648742,5033.400406,444.123565,-72625.853210
369.651270,6513.812290,-296.082377,-78141.740796
369.653798,17616.901420,3849.070898,-73851.606007
369.656325,5773.606348,3552.988522,-74770.920605
369.658853,1924.535449,2220.617826,-75690.235202
369.661381,13767.830521,1184.329507,-75690.235202
369.663909,-4885.359217,-2368.659014,-76609.549800
369.666437,-1480.411884,7254.018232,-72472.634111
369.668964,-4145.153275,-592.164754,-78754.617194
369.671492,-9030.512492,-888.247130,-78907.836294
369.674020,-1480.411884,1036.288319,-74770.920605
369.676548,-10362.883188,148.041188,-74311.263306
369.679076,-296.082377,5033.400406,-76915.987999
369.681604,5477.523971,-3997.112087,-79214.274493
369.684131,-16284.530724,4589.276840,-73851.606007
369.686659,-5625.565159,296.082377,-75843.454302
369.689187,-1480.411884,148.041188,-79367.493593
369.691715,-15396.283594,6069.688724,-74158.044206
369.694243,10362.883188,-740.205942,-76303.111601
369.696771,-3256.906145,4145.153275,-76456.330700
369.699298,-4885.359217,-2368.659014,-80133.589091
369.701826,-11251.130318,1332.370696,-74004.825107
369.704354,-7105.977043,3552.988522,-75230.577904
369.706882,-2960.823768,-148.041188,-79980.369991
369.709410,-888.247130,3256.906145,-76609.549800
369.711938,-6957.935855,1924.535449,-77222.426198
369.714465,6809.894666,3552.988522,-75996.673402
369.716993,10214.842000,740.205942,-75843.454302
369.719521,6217.729913,296.082377,-76149.892501
369.722058,14952.160028,3404.947333,-75537.016103
369.724596,3701.029710,-148.041188,-77375.645298
369.727133,148.041188,3108.864956,-75537.016103
369.729670,4737.318029,3701.029710,-73698.386908
369.732208,-2368.659014,-888.247130,-79827.150892
369.734745,5625.565159,2516.700203,-75537.016103
369.737282,15100.201217,-1924.535449,-77375.645298
369.739820,296.082377,1628.453072,-74004.825107
369.742357,7105.977043,-3997.112087,-78294.959896
369.744894,-444.123565,5625.565159,-75230.577904
369.747432,7846.182985,-444.123565,-76915.987999
369.749969,9030.512492,1480.411884,-79827.150892
369.752506,17172.777854,2960.823768,-75077.358804
369.755044,-1628.453072,3256.906145,-74158.044206
369.757581,7846.182985,-592.164754,-77222.426198
369.760118,8586.388927,4293.194464,-76456.330700
369.762656,5181.441594,-3404.947333,-78754.617194
369.765193,-6809.894666,6217.729913,-75077.358804
369.767730,-6661.853478,1036.288319,-76303.111601
369.770267,-11991.336260,-2220.617826,-78754.617194
369.772805,-3849.070898,4589.276840,-73851.606007
369.775342,148.041188,-4441.235652,-78754.617194
369.777879,1628.453072,7254.018232,-74004.825107
369.780417,4737.318029,444.123565,-76303.111601
369.782954,-21317.931130,5329.482782,-72779.072310
369.785491,3404.947333,7846.182985,-71400.100414
369.788029,-3701.029710,-1184.329507,-78907.836294
369.790566,444.123565,2516.700203,-79061.055394
369.793103,9326.594869,-2368.659014,-74924.139704
369.795641,-148.041188,740.205942,-73238.729609
369.798178,-6069.688724,3552.988522,-73851.606007
369.800715,-8882.471304,-1332.370696,-77835.302597
369.803253,1332.370696,3701.029710,-76149.892501
369.805790,-3849.070898,-2368.659014,-76456.330700
369.808327,-4293.194464,1480.411884,-77069.207099
369.810865,-6069.688724,3997.112087,-74311.263306
369.813402,7994.224174,1184.329507,-76303.111601
369.815939,11843.295072,3256.906145,-74158.044206
369.818477,9326.594869,2960.823768,-75537.016103
369.821014,10362.883188,1332.370696,-77069.207099
369.823525,10214.842000,3552.988522,-76609.549800
369.826037,-3108.864956,-1036.288319,-77988.521696
369.828549,7846.182985,592.164754,-76456.330700
369.831060,-8734.430116,6809.894666,-77069.207099
369.833572,-7846.182985,5181.441594,-78907.836294
369.836083,26055.249158,7698.141797,-70174.347617
369.838595,-7550.100608,-3997.112087,-79520.712692
369.841106,25167.002028,-2220.617826,-82738.313784
369.843618,10658.965565,3997.112087,-68948.594820
369.846130,-7402.059420,444.123565,-80133.589091
369.848641,32421.020260,5181.441594,-74924.139704
369.851153,-8734.430116,-444.123565,-77682.083497
369.853664,26647.413912,3404.947333,-75843.454302
369.856176,-1776.494261,2072.576638,-75230.577904
369.858687,6809.894666,-4589.276840,-80133.589091
369.861199,5181.441594,5033.400406,-74158.044206
369.863711,-14804.118840,-444.123565,-78907.836294
369.866222,-12583.501014,-2368.659014,-78754.617194
369.868734,2072.576638,1924.535449,-75230.577904
369.871245,-14359.995275,2072.576638,-74311.263306
369.873757,3849.070898,4145.153275,-74770.920605
369.876269,-3404.947333,-444.123565,-77069.207099
369.878780,-13619.789333,10362.883188,-71400.100414
369.881292,-9622.677246,-3849.070898,-72319.415011
369.883803,-18653.189738,-2220.617826,-78601.398095
369.886315,30496.484810,6809.894666,-73851.606007
369.888826,-41007.409187,1480.411884,-77375.645298
369.891338,-4885.359217,7550.100608,-77222.426198
369.893850,-1628.453072,-2812.782580,-77222.426198
369.896361,-27239.578666,2220.617826,-75996.673402
369.898873,8882.471304,2960.823768,-76762.768900
369.901384,-23834.631332,444.123565,-78141.740796
369.903896,-3404.947333,-1036.288319,-80899.684589
369.906407,-5033.400406,2072.576638,-76149.892501
369.908919,3701.029710,5329.482782,-75383.797003
369.911431,7994.224174,2072.576638,-74158.044206
369.913942,11251.130318,-444.123565,-76303.111601
369.916454,20577.725188,4441.235652,-74464.482406
369.918965,5625.565159,1036.288319,-78601.398095
369.921477,6661.853478,-296.082377,-80133.589091
369.924001,6661.853478,296.082377,-72472.634111
369.926525,4737.318029,-3701.029710,-80899.684589
369.929050,21614.013506,5033.400406,-70634.004916
369.931574,-3849.070898,-1184.329507,-75537.016103
369.934098,8586.388927,2072.576638,-76303.111601
369.936623,18061.024985,-1924.535449,-77682.083497
369.939147,296.082377,-4441.235652,-77222.426198
369.941671,14952.160028,6513.812290,-71400.100414
369.944195,11547.212695,-2664.741391,-81052.903688
369.946720,12583.501014,1036.288319,-77222.426198
369.949244,15988.448347,1776.494261,-75537.016103
369.951768,6809.894666,444.123565,-74464.482406
369.954293,12583.501014,1924.535449,-74924.139704
369.956817,-2664.741391,1184.329507,-78141.740796
369.959341,-9918.759623,-1628.453072,-79827.150892
369.961865,-8142.265362,2664.741391,-75843.454302
369.964390,-10362.883188,2664.741391,-75996.673402
369.966914,-5625.565159,592.164754,-77375.645298
369.969438,-2812.782580,1628.453072,-75996.673402
369.971962,1776.494261,4441.235652,-78448.178995
369.974487,-20577.725188,5921.647536,-76303.111601
369.977011,-4737.318029,-1924.535449,-78754.617194
369.979535,8438.347739,1776.494261,-76456.330700
369.982060,-34641.638086,2664.741391,-77069.207099
369.984584,22946.384202,-1480.411884,-77222.426198
369.987108,-7402.059420,2368.659014,-75843.454302
369.989632,-1924.535449,3256.906145,-76915.987999
369.992157,-3552.988522,6069.688724,-68795.375720
369.994681,-13175.665768,-4589.276840,-80593.246390
369.997205,2368.659014,-1776.494261,-81972.218286
369.999730,-4737.318029,444.123565,-77069.207099
370.002254,-14211.954086,2960.823768,-74464.482406
370.004778,18357.107362,4441.235652,-75690.235202
370.007302,2368.659014,148.041188,-74770.920605
370.009827,11103.089130,4145.153275,-74004.825107
370.012351,20429.683999,-1628.453072,-79214.274493
370.014875,2812.782580,3404.947333,-77835.302597
370.017400,2960.823768,148.041188,-75537.016103
370.019924,4441.235652,1480.411884,-75537.016103
370.022448,16876.695478,-5625.565159,-79673.931792
370.024983,5329.482782,1924.535449,-76915.987999
370.027519,0.000000,5033.400406,-71553.319513
370.030054,7846.182985,1628.453072,-79673.931792
370.032589,6957.935855,2516.700203,-75077.358804
370.035124,1332.370696,3256.906145,-75690.235202
370.037660,19689.478057,1036.288319,-76915.987999
370.040195,3701.029710,2664.741391,-77528.864398
370.042730,8586.388927,7105.977043,-72012.976812
370.045265,15248.242405,-1184.329507,-78294.959896
370.047801,9030.512492,888.247130,-78448.178995
370.050336,10362.883188,148.041188,-75690.235202
370.052871,-21614.013506,1924.535449,-76303.111601
370.055406,-2516.700203,4737.318029,-77222.426198
370.057942,-12287.418637,-1924.535449,-79214.274493
370.060477,-5477.523971,2368.659014,-75843.454302
370.063012,-740.205942,-2072.576638,-76609.549800
370.065547,-7402.059420,2368.659014,-78754.617194
370.068083,-15988.448347,7846.182985,-75690.235202
370.070618,-1184.329507,-5477.523971,-81052.903688
370.073153,-11695.253884,-4589.276840,-83044.751983
370.075688,-10658.965565,2368.659014,-77528.864398
370.078224,-14359.995275,9622.677246,-72166.195912
370.080759,-11547.212695,-4737.318029,-81665.780087
370.083294,3701.029710,-1628.453072,-76915.987999
370.085829,-6513.812290,3256.906145,-74004.825107
370.088365,-7994.224174,2072.576638,-75383.797003
370.090900,-9030.512492,2516.700203,-78754.617194
370.093435,-2812.782580,2220.617826,-77222.426198
370.095970,-5921.647536,2368.659014,-76762.768900
370.098506,6069.688724,1480.411884,-74770.920605
370.101041,9326.594869,-3108.864956,-79061.055394
370.103576,15248.242405,5625.565159,-72472.634111
370.106111,12583.501014,3256.906145,-74924.139704
370.108646,5625.565159,-3256.906145,-80133.589091
370.111182,9178.553681,-148.041188,-79520.712692
370.113717,-5625.565159,-1776.494261,-76149.892501
370.116252,-12879.583391,6661.853478,-76762.768900
370.118787,10807.006753,888.247130,-77682.083497
370.121323,9326.594869,-888.247130,-75537.016103
370.123858,4737.318029,2516.700203,-73085.510509
370.126402,18801.230927,2072.576638,-74617.701505
370.128946,-11991.336260,2368.659014,-80593.246390
370.131490,10362.883188,-1332.370696,-77069.207099
370.134034,23982.672521,592.164754,-75383.797003
370.136578,-4737.318029,3997.112087,-75077.358804
370.139122,22058.137072,-1480.411884,-78907.836294
370.141665,9326.594869,6957.935855,-72779.072310
370.144209,8734.430116,-2368.659014,-76456.330700
370.146753,-4145.153275,2664.741391,-74770.920605
370.149297,-12287.418637,888.247130,-77375.645298
370.151841,-9178.553681,2516.700203,-76149.892501
370.154385,-6069.688724,1776.494261,-76609.549800
370.156929,-5625.565159,-444.123565,-75996.673402
370.159473,148.041188,2368.659014,-74617.701505
370.162017,-2368.659014,7846.182985,-74770.920605
370.164561,-10214.842000,-1184.329507,-80133.589091
370.167105,4737.318029,-1776.494261,-77988.521696
370.169649,-20133.601622,-3997.112087,-78601.398095
370.172193,-1480.411884,6365.771101,-76609.549800
370.174736,12287.418637,2072.576638,-73851.606007
370.177280,-6513.812290,-3404.947333,-79214.274493
370.179824,13027.624579,3849.070898,-74924.139704
370.182368,-16284.530724,592.164754,-72932.291410
370.184912,-1332.370696,-740.205942,-78754.617194
370.187456,-2812.782580,5921.647536,-74158.044206
370.190000,-11547.212695,-148.041188,-79673.931792
370.192544,9622.677246,-444.123565,-75843.454302
370.195088,2960.823768,-1036.288319,-79214.274493
370.197632,20133.601622,5033.400406,-72472.634111
370.200176,2664.741391,2812.782580,-74464.482406
370.202720,11251.130318,-3849.070898,-81512.560987
370.205264,9326.594869,2516.700203,-77222.426198
370.207807,-296.082377,740.205942,-75383.797003
370.210351,15544.324782,4145.153275,-73085.510509
370.212895,2368.659014,4293.194464,-78754.617194
370.215439,3108.864956,444.123565,-79980.369991
370.217983,13175.665768,6217.729913,-73391.948708
370.220527,1036.288319,-5181.441594,-79827.150892
370.223071,7994.224174,9326.594869,-75690.235202
370.225615,5625.565159,5181.441594,-69714.690318
370.228166,14508.036463,-1628.453072,-79061.055394
370.230718,14952.160028,1332.370696,-76456.330700
370.233269,6957.935855,-592.164754,-78448.178995
370.235820,13767.830521,4293.194464,-71706.538613
370.238372,3256.906145,-1480.411884,-76303.111601
370.240923,-3701.029710,1776.494261,-75537.016103
370.243474,-11103.089130,3552.988522,-74004.825107
370.246026,-7402.059420,740.205942,-79061.055394
370.248577,-1332.370696,6365.771101,-73545.167808
370.251129,-10066.800811,1924.535449,-75537.016103
370.253680,3849.070898,1184.329507,-75996.673402
370.256231,-444.123565,3701.029710,-77069.207099
370.258783,9474.636058,-9178.553681,-78601.398095
370.261334,-14508.036463,1776.494261,-75537.016103
370.263885,4145.153275,2368.659014,-75690.235202
370.266437,-4737.318029,-888.247130,-78448.178995
370.268988,-16580.613101,5033.400406,-75996.673402
370.271539,6217.729913,1628.453072,-78141.740796
370.274091,-19837.519246,6513.812290,-74158.044206
370.276642,-2072.576638,1036.288319,-75537.016103
370.279194,-9770.718434,-1036.288319,-75383.797003
370.281745,-2368.659014,6661.853478,-74770.920605
370.284296,-4293.194464,1184.329507,-76915.987999
370.286848,888.247130,-1036.288319,-80440.027290
370.289399,12287.418637,740.205942,-75843.454302
370.291950,9030.512492,3997.112087,-74311.263306
370.294502,20281.642811,3701.029710,-73391.948708
370.297053,3108.864956,-592.164754,-80286.808190
370.299604,12879.583391,444.123565,-79367.493593
370.302156,2516.700203,1332.370696,-73238.729609
370.304707,9326.594869,1628.453072,-73545.167808
370.307259,10066.800811,4441.235652,-74617.701505
370.309807,7254.018232,-296.082377,-79520.712692
370.312363,36122.049970,2368.659014,-73698.386908
370.314920,-26203.290347,3404.947333,-79214.274493
370.317477,2220.617826,0.000000,-78754.617194
370.320033,7105.977043,8438.347739,-70021.128517
370.322590,5033.400406,-1776.494261,-79214.274493
370.325147,21762.054695,2516.700203,-78294.959896
370.327703,-2664.741391,0.000000,-76609.549800
370.330260,14656.077652,5773.606348,-73545.167808
370.332817,4441.235652,-592.164754,-75996.673402
370.335373,-15100.201217,-444.123565,-75537.016103
370.337930,-8142.265362,5033.400406,-74464.482406
370.340487,-15100.201217,-444.123565,-77835.302597
370.343044,-6217.729913,4885.359217,-74158.044206
370.345600,-2812.782580,2220.617826,-72625.853210
370.348157,-888.247130,1776.494261,-77682.083497
370.350714,-8290.306550,7105.977043,-75843.454302
370.353270,-3849.070898,-6069.688724,-81665.780087
370.355827,-14804.118840,3404.947333,-74770.920605
370.358384,-10362.883188,3849.070898,-77988.521696
370.360940,-14656.077652,3997.112087,-77988.521696
370.363497,740.205942,0.000000,-76456.330700
370.366054,-888.247130,3256.906145,-75843.454302
370.368611,-1776.494261,5773.606348,-73851.606007
370.371167,-8290.306550,3404.947333,-73238.729609
370.373724,-9622.677246,-2220.617826,-77528.864398
370.376281,1036.288319,3256.906145,-76303.111601
370.378837,-7254.018232,1036.288319,-78294.959896
370.381394,10955.047942,592.164754,-78907.836294
370.383951,8142.265362,1776.494261,-72932.291410
370.386507,4589.276840,-2960.823768,-77682.083497
370.389064,14508.036463,8290.306550,-73085.510509
370.391621,5329.482782,-4885.359217,-81206.122788
370.394178,-3108.864956,4589.276840,-76149.892501
370.396734,-592.164754,2220.617826,-76303.111601
370.399291,4441.235652,-592.164754,-79827.150892
370.401848,6069.688724,4441.235652,-75690.235202
370.404404,24722.878463,-1332.370696,-78601.398095
370.406961,9474.636058,148.041188,-78754.617194
370.409518,9178.553681,-3701.029710,-77069.207099
370.412079,11251.130318,-2516.700203,-76915.987999
370.414641,6217.729913,4441.235652,-72472.634111
370.417202,15544.324782,-1332.370696,-78754.617194
370.419764,18061.024985,-740.205942,-79367.493593
370.422325,4589.276840,5773.606348,-73238.729609
370.424887,6809.894666,740.205942,-74464.482406
370.427448,-1036.288319,5181.441594,-76303.111601
370.430009,-15840.407159,-5329.482782,-78907.836294
370.432571,-15988.448347,5033.400406,-76915.987999
370.435132,1480.411884,592.164754,-74464.482406
370.437694,-15100.201217,2072.576638,-75230.577904
370.440255,4293.194464,5921.647536,-73698.386908
370.442817,1776.494261,1480.411884,-77682.083497
370.445378,-18949.272115,7994.224174,-78294.959896
370.447940,9178.553681,-2960.823768,-78907.836294
370.450501,-38194.626607,2960.823768,-73391.948708
370.453063,-148.041188,3404.947333,-72779.072310
370.455624,2664.741391,-2960.823768,-74924.139704
370.458186,-16284.530724,4885.359217,-71706.538613
370.460747,-9030.512492,1924.535449,-78141.740796
370.463309,592.164754,-1628.453072,-73698.386908
370.465870,-11399.171507,1776.494261,-74464.482406
370.468432,10214.842000,-2072.576638,-80133.589091
370.470993,-16876.695478,3256.906145,-78907.836294
370.473554,19097.313304,-740.205942,-77528.864398
370.476116,2812.782580,5625.565159,-72779.072310
370.478677,13915.871710,-1924.535449,-74924.139704
370.481239,22650.301825,296.082377,-77682.083497
370.483800,1924.535449,4589.276840,-77222.426198
370.486362,296.082377,148.041188,-78754.617194
370.488923,-14508.036463,3701.029710,-75690.235202
370.491485,21614.013506,-5329.482782,-77988.521696
370.494046,11103.089130,1036.288319,-75383.797003
370.496608,5329.482782,2368.659014,-77835.302597
370.499169,-2960.823768,888.247130,-77835.302597
370.501731,21465.972318,148.041188,-73851.606007
370.504292,6365.771101,7402.059420,-71859.757712
370.506854,14656.077652,-2664.741391,-78601.398095
370.509415,5477.523971,1924.535449,-80593.246390
370.511976,4441.235652,2516.700203,-76762.768900
370.514542,11251.130318,3404.947333,-73545.167808
370.517107,9918.759623,888.247130,-76762.768900
370.519673,-9326.594869,1924.535449,-76609.549800
370.522238,-10658.965565,1628.453072,-75230.577904
370.524803,-14952.160028,-444.123565,-78601.398095
370.527369,-3997.112087,4885.359217,-75077.358804
370.529934,-6661.853478,2812.782580,-72166.195912
370.532499,2812.782580,2516.700203,-76609.549800
370.535065,15248.242405,-148.041188,-77528.864398
370.537630,-26795.455100,6513.812290,-77835.302597
370.540196,-5477.523971,3552.988522,-73851.606007
370.542761,-4145.153275,-296.082377,-79520.712692
370.545326,2516.700203,-2072.576638,-79367.493593
370.547892,444.123565,6957.935855,-70174.347617
370.550457,-2960.823768,-148.041188,-77528.864398
370.553022,-12879.583391,2368.659014,-75537.016103
370.555588,-9474.636058,4293.194464,-72012.976812
370.558153,-7550.100608,-6957.935855,-78141.740796
370.560718,3108.864956,6069.688724,-73545.167808
370.563284,-10510.924376,-3404.947333,-81972.218286
370.565849,12583.501014,6957.935855,-75383.797003
370.568415,13767.830521,592.164754,-73391.948708
370.570980,6661.853478,0.000000,-77222.426198
370.573545,17320.819043,6661.853478,-73545.167808
370.576111,5477.523971,-5181.441594,-81359.341888
370.578676,-6217.729913,4885.359217,-74924.139704
370.581241,-8438.347739,5181.441594,-76915.987999
370.583807,9622.677246,-7105.977043,-79061.055394
370.586372,18209.066173,4441.235652,-72625.853210
370.588937,2664.741391,3701.029710,-74770.920605
370.591503,17468.860231,-7846.182985,-82891.532884
370.594068,22206.178260,3701.029710,-74464.482406
370.596634,-740.205942,-888.247130,-71553.319513
370.599199,2812.782580,2664.741391,-77528.864398
370.601764,18949.272115,296.082377,-78907.836294
370.604330,-2960.823768,-296.082377,-79520.712692
370.606895,24870.919651,-296.082377,-76609.549800
370.609460,-4885.359217,2220.617826,-74158.044206
370.612026,-5625.565159,888.247130,-76915.987999
370.614591,-10066.800811,2812.782580,-73698.386908
370.617159,-17320.819043,0.000000,-81665.780087
370.619727,-148.041188,5477.523971,-74617.701505
370.622295,-8290.306550,-1184.329507,-74770.920605
370.624863,-1332.370696,2664.741391,-75230.577904
370.627430,22798.343014,-1924.535449,-76456.330700
370.629998,-18061.024985,5773.606348,-75230.577904
370.632566,-2516.700203,-444.123565,-76149.892501
370.635134,-25759.166782,1628.453072,-77222.426198
370.637702,19541.436869,-1332.370696,-76456.330700
370.640270,-10510.924376,0.000000,-75230.577904
370.642837,-8290.306550,-1036.288319,-80133.589091
370.645405,1924.535449,2072.576638,-76303.111601
370.647973,-10214.842000,1776.494261,-74770.920605
370.650541,-6513.812290,2664.741391,-75996.673402
370.653109,-3256.906145,-2072.576638,-77528.864398
370.655677,-6809.894666,5181.441594,-76149.892501
370.658245,12879.583391,148.041188,-78754.617194
370.660812,16432.571912,1776.494261,-75383.797003
370.663380,13027.624579,2664.741391,-74311.263306
370.665948,8734.430116,148.041188,-76762.768900
370.668516,9622.677246,3256.906145,-76915.987999
370.671084,1480.411884,-1628.453072,-77988.521696
370.673652,15248.242405,-1332.370696,-73851.606007
370.676219,10955.047942,2368.659014,-73851.606007
370.678787,4737.318029,1036.288319,-76456.330700
370.681355,12139.377449,11103.089130,-71093.662214
370.683923,22206.178260,-6661.853478,-77988.521696
370.686491,7994.224174,888.247130,-75690.235202
370.689059,10214.842000,1184.329507,-74770.920605
