#time,accel_x,accel_y,accel_z
507.913931,6217.729913,7402.059420,-72166.195912
507.916552,1628.453072,-1184.329507,-75230.577904
507.919173,-4145.153275,2812.782580,-75996.673402
507.921794,5033.400406,4293.194464,-74924.139704
507.924415,-1776.494261,-2812.782580,-76456.330700
507.927037,6069.688724,3404.947333,-75077.358804
507.929658,2368.659014,0.000000,-79061.055394
507.932279,444.123565,444.123565,-76609.549800
507.934900,3552.988522,1628.453072,-74924.139704
507.937521,1924.535449,1184.329507,-80286.808190
507.940142,4441.235652,3108.864956,-76303.111601
507.942764,-444.123565,-1776.494261,-78141.740796
507.945385,2368.659014,3701.029710,-71859.757712
507.948006,296.082377,6513.812290,-77375.645298
507.950627,-148.041188,-6809.894666,-82125.437386
507.953248,4293.194464,4589.276840,-71246.881314
507.955869,2812.782580,-4145.153275,-75383.797003
507.958490,4885.359217,-9178.553681,-79827.150892
507.961112,1184.329507,-13471.748144,-74617.701505
507.963733,888.247130,-6957.935855,-80286.808190
507.966354,444.123565,2220.617826,-77069.207099
507.968975,740.205942,2220.617826,-75690.235202
507.971596,-4145.153275,3404.947333,-77988.521696
507.974217,1480.411884,3552.988522,-78754.617194
507.976839,-1036.288319,-1332.370696,-75690.235202
507.979458,888.247130,4293.194464,-75996.673402
507.982077,2072.576638,2812.782580,-77988.521696
507.984697,444.123565,5329.482782,-77222.426198
507.987316,4589.276840,8882.471304,-73545.167808
507.989935,3849.070898,148.041188,-75996.673402
507.992555,-1332.370696,4589.276840,-77682.083497
507.995174,3552.988522,-2664.741391,-78448.178995
507.997794,1036.288319,6365.771101,-75383.797003
508.000413,7402.059420,6809.894666,-75230.577904
508.003032,2960.823768,6957.935855,-75690.235202
508.005652,-148.041188,13175.665768,-70634.004916
508.008271,1036.288319,-1776.494261,-80746.465489
508.010891,296.082377,-6957.935855,-76149.892501
508.013510,1628.453072,4441.235652,-77988.521696
508.016129,3997.112087,6069.688724,-74311.263306
508.018749,7994.224174,13027.624579,-72166.195912
508.021368,-1776.494261,7698.141797,-75843.454302
508.023987,3552.988522,-7846.182985,-83964.066581
508.026607,5181.441594,10658.965565,-71093.662214
508.029226,296.082377,1036.288319,-82891.532884
508.031846,5625.565159,15988.448347,-70634.004916
508.034465,-296.082377,9030.512492,-80440.027290
508.037084,-1924.535449,7846.182985,-72625.853210
508.039704,1776.494261,8438.347739,-76456.330700
508.042323,888.247130,-2960.823768,-81972.218286
508.044943,0.000000,6661.853478,-72472.634111
508.047562,2664.741391,1776.494261,-76915.987999
508.050181,4145.153275,4293.194464,-79367.493593
508.052801,-1776.494261,888.247130,-75843.454302
508.055420,444.123565,6217.729913,-73545.167808
508.058040,3552.988522,6809.894666,-71706.538613
508.060659,-148.041188,5329.482782,-78294.959896
508.063278,4589.276840,7698.141797,-78754.617194
508.065898,2072.576638,444.123565,-75690.235202
508.068517,-7846.182985,-2516.700203,-75230.577904
508.071136,1776.494261,-8438.347739,-77682.083497
508.073756,3849.070898,-9474.636058,-76303.111601
508.076375,888.247130,2220.617826,-72166.195912
508.078995,4885.359217,-2812.782580,-76762.768900
508.081614,-1184.329507,-1628.453072,-76456.330700
508.084226,-296.082377,-888.247130,-78907.836294
508.086839,-3256.906145,11991.336260,-72319.415011
508.089451,5921.647536,-5477.523971,-81052.903688
508.092064,-1628.453072,296.082377,-77988.521696
508.094676,4885.359217,-1480.411884,-71859.757712
508.097289,1036.288319,1628.453072,-74617.701505
508.099901,-592.164754,-10214.842000,-80440.027290
508.102513,5033.400406,-3404.947333,-73698.386908
508.105126,740.205942,-2516.700203,-74924.139704
508.107738,592.164754,-2220.617826,-77835.302597
508.110351,0.000000,10066.800811,-71553.319513
508.112963,592.164754,-8734.430116,-80899.684589
508.115576,10066.800811,14804.118840,-70480.785816
508.118188,1184.329507,740.205942,-76456.330700
508.120800,1924.535449,-12139.377449,-85802.695776
508.123413,-2368.659014,18949.272115,-64505.240932
508.126025,3997.112087,-15988.448347,-86722.010374
508.128638,3552.988522,740.205942,-72012.976812
508.131250,-2664.741391,-9474.636058,-77375.645298
508.133863,9178.553681,-8734.430116,-76915.987999
508.136475,-1480.411884,-3997.112087,-73851.606007
508.139088,3108.864956,-6957.935855,-82125.437386
508.141700,0.000000,3108.864956,-69714.690318
508.144312,-2664.741391,-1036.288319,-77375.645298
508.146925,6661.853478,12139.377449,-70021.128517
508.149537,5477.523971,-12435.459826,-84117.285680
508.152150,-1036.288319,-3552.988522,-79214.274493
508.154762,2220.617826,-1184.329507,-76456.330700
508.157375,148.041188,-5625.565159,-76915.987999
508.159987,2664.741391,4145.153275,-74924.139704
508.162599,7402.059420,-2960.823768,-74924.139704
508.165212,-7846.182985,3256.906145,-71859.757712
508.167824,5477.523971,-10066.800811,-80440.027290
508.170437,-740.205942,3552.988522,-73545.167808
508.173049,2664.741391,11103.089130,-73851.606007
508.175662,4293.194464,8290.306550,-74617.701505
508.178274,-1628.453072,15692.365970,-75537.016103
508.180886,0.000000,8734.430116,-78294.959896
508.183499,-2220.617826,4441.235652,-75690.235202
508.186111,4737.318029,1776.494261,-75230.577904
508.188718,-1184.329507,-2516.700203,-79673.931792
508.191324,4589.276840,2664.741391,-74004.825107
508.193931,3701.029710,2812.782580,-75537.016103
508.196537,-3701.029710,2664.741391,-80746.465489
508.199143,5477.523971,6217.729913,-75077.358804
508.201750,-1036.288319,592.164754,-80899.684589
508.204356,888.247130,5921.647536,-74924.139704
508.206963,5033.400406,8290.306550,-76915.987999
508.209569,148.041188,10066.800811,-75383.797003
508.212175,4737.318029,3701.029710,-76609.549800
508.214782,1184.329507,-6957.935855,-79980.369991
508.217388,4145.153275,5033.400406,-74770.920605
508.219994,0.000000,592.164754,-77835.302597
508.222601,2072.576638,7105.977043,-75537.016103
508.225207,5033.400406,3701.029710,-74464.482406
508.227814,3404.947333,3849.070898,-77375.645298
508.230420,4737.318029,9770.718434,-74770.920605
508.233026,6365.771101,9178.553681,-75230.577904
508.235633,-8734.430116,8290.306550,-77682.083497
508.238239,2368.659014,10658.965565,-74311.263306
508.240846,-6513.812290,0.000000,-76303.111601
508.243452,-1184.329507,2516.700203,-77988.521696
508.246058,6809.894666,-2664.741391,-71093.662214
508.248665,-1184.329507,2516.700203,-80286.808190
508.251271,7105.977043,12139.377449,-70174.347617
508.253878,4293.194464,5181.441594,-76303.111601
508.256484,-2516.700203,12731.542202,-78601.398095
508.259090,4145.153275,1480.411884,-77988.521696
508.261697,1924.535449,6661.853478,-72166.195912
508.264303,1332.370696,-296.082377,-78294.959896
508.266910,148.041188,-4293.194464,-77528.864398
508.269516,6513.812290,-1332.370696,-68948.594820
508.272122,5773.606348,-10362.883188,-75843.454302
508.274729,-4885.359217,-888.247130,-72625.853210
508.277335,5181.441594,-296.082377,-77682.083497
508.279942,-4737.318029,-1924.535449,-76149.892501
508.282548,9770.718434,4885.359217,-74311.263306
508.285154,-8290.306550,-1332.370696,-78448.178995
508.287761,13767.830521,4589.276840,-73851.606007
508.290367,-6365.771101,-2960.823768,-76915.987999
508.292968,-10955.047942,-1776.494261,-76609.549800
508.295569,12731.542202,-888.247130,-74617.701505
508.298169,-6809.894666,-10362.883188,-80593.246390
508.300770,1924.535449,-1628.453072,-70174.347617
508.303371,7994.224174,-3849.070898,-78754.617194
508.305972,-6809.894666,888.247130,-79673.931792
508.308573,7105.977043,-740.205942,-76762.768900
508.311173,-2072.576638,740.205942,-75537.016103
508.313774,1036.288319,6365.771101,-75537.016103
508.316375,3701.029710,-1924.535449,-78754.617194
508.318976,-1036.288319,-6661.853478,-80746.465489
508.321576,1776.494261,14063.912898,-70634.004916
508.324177,5773.606348,-8734.430116,-80286.808190
508.326778,2664.741391,3404.947333,-72932.291410
508.329379,1332.370696,-12583.501014,-75843.454302
508.331979,592.164754,-2072.576638,-75843.454302
508.334580,1332.370696,-6513.812290,-80746.465489
508.337181,-8586.388927,5625.565159,-75077.358804
508.339782,12435.459826,-888.247130,-74004.825107
508.342382,-1628.453072,-5033.400406,-77375.645298
508.344983,-1332.370696,1924.535449,-73698.386908
508.347584,8882.471304,-7105.977043,-79827.150892
508.350185,-6957.935855,2220.617826,-75077.358804
508.352785,6809.894666,-5477.523971,-80746.465489
508.355386,-3701.029710,2812.782580,-74464.482406
508.357987,4589.276840,-888.247130,-73698.386908
508.360588,1924.535449,-2960.823768,-74924.139704
508.363188,-5033.400406,-1036.288319,-76915.987999
508.365789,3552.988522,4145.153275,-79214.274493
508.368390,6217.729913,7402.059420,-75383.797003
508.370991,-740.205942,11103.089130,-75077.358804
508.373591,4441.235652,13027.624579,-75383.797003
508.376192,-6661.853478,7846.182985,-77069.207099
508.378793,4441.235652,7994.224174,-71859.757712
508.381394,-1184.329507,1332.370696,-79061.055394
508.383994,5477.523971,444.123565,-77375.645298
508.386595,5921.647536,-444.123565,-78907.836294
508.389196,-3552.988522,4145.153275,-74617.701505
508.391797,-296.082377,3701.029710,-76149.892501
508.394398,5033.400406,6809.894666,-72472.634111
508.396996,-2368.659014,6217.729913,-78141.740796
508.399592,6513.812290,7846.182985,-73851.606007
508.402188,740.205942,888.247130,-79827.150892
508.404785,2516.700203,3404.947333,-79061.055394
508.407381,296.082377,2960.823768,-75537.016103
508.409977,3404.947333,-740.205942,-84270.504780
508.412573,2960.823768,24278.754898,-67109.965625
508.415169,3701.029710,-10214.842000,-84117.285680
508.417765,-6661.853478,9326.594869,-76456.330700
508.420361,3849.070898,-1184.329507,-77988.521696
508.422957,3404.947333,14063.912898,-70787.224015
508.425553,4145.153275,7698.141797,-79827.150892
508.428149,1776.494261,7698.141797,-77528.864398
508.430745,296.082377,11103.089130,-73085.510509
508.433342,2220.617826,-3552.988522,-80899.684589
508.435938,-3701.029710,4885.359217,-74464.482406
508.438534,-592.164754,-3108.864956,-81052.903688
508.441130,2516.700203,9622.677246,-70021.128517
508.443726,-296.082377,7698.141797,-77375.645298
508.446322,-1184.329507,10066.800811,-77375.645298
508.448918,1776.494261,6365.771101,-76456.330700
508.451514,6217.729913,7254.018232,-75537.016103
508.454110,-1628.453072,1776.494261,-78294.959896
508.456706,2960.823768,2516.700203,-75077.358804
508.459302,6661.853478,-10066.800811,-74311.263306
508.461898,3997.112087,-6513.812290,-73698.386908
508.464495,-296.082377,-1332.370696,-72779.072310
508.467091,-148.041188,-3552.988522,-77835.302597
508.469687,444.123565,888.247130,-72319.415011
508.472283,296.082377,3997.112087,-74617.701505
508.474879,7846.182985,148.041188,-78907.836294
508.477475,-1332.370696,-2368.659014,-77528.864398
508.480071,-1332.370696,-1332.370696,-76303.111601
508.482667,3701.029710,4885.359217,-71246.881314
508.485263,4293.194464,-7254.018232,-79827.150892
508.487859,592.164754,-2072.576638,-75383.797003
508.490455,8142.265362,-11103.089130,-76303.111601
508.493052,-1036.288319,1480.411884,-70940.443115
508.495648,3849.070898,2960.823768,-79520.712692
508.498244,-1184.329507,-888.247130,-79061.055394
508.500834,2960.823768,2516.700203,-79061.055394
508.503423,2812.782580,2368.659014,-74924.139704
508.506013,888.247130,-9770.718434,-81972.218286
508.508603,-1776.494261,3256.906145,-74770.920605
508.511193,1628.453072,1628.453072,-73391.948708
508.513783,-444.123565,-2664.741391,-78754.617194
508.516373,3256.906145,-13767.830521,-79980.369991
508.518963,-1480.411884,-8142.265362,-75996.673402
508.521553,1628.453072,-3997.112087,-74770.920605
508.524143,5921.647536,740.205942,-76456.330700
508.526732,-2072.576638,296.082377,-80899.684589
508.529322,7846.182985,0.000000,-75383.797003
508.531912,-2368.659014,1628.453072,-72472.634111
508.534502,3256.906145,-3849.070898,-79367.493593
508.537092,-4737.318029,-6957.935855,-77222.426198
508.539682,10510.924376,-296.082377,-73238.729609
508.542272,-592.164754,444.123565,-77375.645298
508.544862,6513.812290,1924.535449,-73545.167808
508.547452,7846.182985,-7402.059420,-74924.139704
508.550041,-5625.565159,2368.659014,-75537.016103
508.552631,296.082377,4145.153275,-75996.673402
508.555221,1628.453072,8290.306550,-76762.768900
508.557811,4145.153275,7402.059420,-75996.673402
508.560401,6661.853478,9030.512492,-75537.016103
508.562991,-4589.276840,8290.306550,-76915.987999
508.565581,6513.812290,2368.659014,-76149.892501
508.568171,-2072.576638,3997.112087,-74924.139704
508.570760,4885.359217,1184.329507,-79980.369991
508.573350,-1036.288319,5921.647536,-74311.263306
508.575940,592.164754,1036.288319,-79061.055394
508.578530,3552.988522,8882.471304,-73851.606007
508.581120,1628.453072,6365.771101,-75077.358804
508.583710,2960.823768,4441.235652,-81512.560987
508.586300,2516.700203,3701.029710,-76762.768900
508.588890,-2368.659014,4737.318029,-75537.016103
508.591480,-2960.823768,444.123565,-79520.712692
508.594069,5773.606348,1924.535449,-72472.634111
508.596659,1776.494261,1332.370696,-77222.426198
508.599249,2812.782580,-444.123565,-76915.987999
508.601839,2368.659014,11695.253884,-77222.426198
508.604425,2220.617826,7550.100608,-78141.740796
508.607010,-2220.617826,8142.265362,-77835.302597
508.609596,3256.906145,8734.430116,-75996.673402
508.612181,-8882.471304,5033.400406,-79520.712692
508.614767,8438.347739,8734.430116,-72319.415011
508.617352,5329.482782,8734.430116,-76762.768900
508.619938,2368.659014,148.041188,-80133.589091
508.622523,-2812.782580,148.041188,-77069.207099
508.625109,7105.977043,-1924.535449,-77835.302597
508.627694,-4441.235652,6809.894666,-72625.853210
508.630280,6661.853478,4145.153275,-78907.836294
508.632865,1924.535449,7698.141797,-73851.606007
508.635451,6069.688724,9326.594869,-75077.358804
508.638036,-592.164754,6957.935855,-78141.740796
508.640622,-2516.700203,-3849.070898,-81359.341888
508.643207,8290.306550,-6513.812290,-71093.662214
508.645793,7254.018232,-12435.459826,-77682.083497
508.648378,-3849.070898,740.205942,-73238.729609
508.650964,3552.988522,-6365.771101,-77682.083497
508.653549,0.000000,148.041188,-75383.797003
508.656135,6957.935855,2812.782580,-74464.482406
508.658720,148.041188,-2368.659014,-80286.808190
508.661306,-4737.318029,1628.453072,-75077.358804
508.663891,3404.947333,2664.741391,-75537.016103
508.666477,5477.523971,3997.112087,-71859.757712
508.669062,3552.988522,-592.164754,-73391.948708
508.671648,-888.247130,-6661.853478,-80440.027290
508.674233,5625.565159,-9326.594869,-75690.235202
508.676819,-444.123565,-4293.194464,-74004.825107
508.679404,6217.729913,-888.247130,-78141.740796
508.681990,4145.153275,444.123565,-78907.836294
508.684575,-2220.617826,-1628.453072,-78141.740796
508.687155,-1036.288319,1480.411884,-75077.358804
508.689735,2960.823768,-1628.453072,-76149.892501
508.692314,3997.112087,-592.164754,-76762.768900
508.694894,2812.782580,-3701.029710,-75690.235202
508.697474,0.000000,-9326.594869,-79673.931792
508.700053,-2960.823768,-6217.729913,-76303.111601
508.702633,-3849.070898,-9770.718434,-78448.178995
508.705212,2516.700203,5773.606348,-73238.729609
508.707792,-1036.288319,-148.041188,-79980.369991
508.710372,3552.988522,2368.659014,-75383.797003
508.712951,3404.947333,592.164754,-75383.797003
508.715531,-1628.453072,-2368.659014,-76915.987999
508.718111,0.000000,-3997.112087,-77069.207099
508.720690,3701.029710,444.123565,-77222.426198
508.723270,6809.894666,-3108.864956,-75077.358804
508.725849,444.123565,-296.082377,-77375.645298
508.728429,592.164754,-6217.729913,-78294.959896
508.731009,-2072.576638,5181.441594,-74924.139704
508.733588,296.082377,8290.306550,-76609.549800
508.736168,7550.100608,11103.089130,-74158.044206
508.738748,2516.700203,12287.418637,-75843.454302
508.741327,444.123565,5477.523971,-78294.959896
508.743907,3552.988522,11843.295072,-72779.072310
508.746486,-5921.647536,-1628.453072,-81052.903688
508.749066,5181.441594,1924.535449,-75843.454302
508.751646,5329.482782,148.041188,-74311.263306
508.754225,1184.329507,5033.400406,-75537.016103
508.756805,4737.318029,2812.782580,-75843.454302
508.759385,-8438.347739,592.164754,-79827.150892
508.761964,3997.112087,6513.812290,-72472.634111
508.764544,5625.565159,3849.070898,-74158.044206
508.767123,-1480.411884,1628.453072,-81206.122788
508.769703,4441.235652,5921.647536,-76149.892501
508.772283,1332.370696,1776.494261,-72779.072310
508.774862,444.123565,592.164754,-77069.207099
508.777442,-888.247130,-2072.576638,-76762.768900
508.780021,5329.482782,9474.636058,-71246.881314
508.782601,2220.617826,3701.029710,-78141.740796
508.785181,148.041188,10510.924376,-77682.083497
508.787760,3108.864956,6069.688724,-78907.836294
508.790336,-5773.606348,4885.359217,-79367.493593
508.792911,888.247130,5329.482782,-73391.948708
508.795486,5033.400406,5181.441594,-79061.055394
508.798062,1628.453072,3997.112087,-75690.235202
508.800637,3849.070898,5773.606348,-73391.948708
508.803212,-3404.947333,3108.864956,-80133.589091
508.805788,4441.235652,740.205942,-78448.178995
508.808363,2220.617826,1332.370696,-82125.437386
508.810938,-1036.288319,7550.100608,-75537.016103
508.813513,2072.576638,5181.441594,-75230.577904
508.816089,3108.864956,9474.636058,-71859.757712
508.818664,-888.247130,-7698.141797,-80440.027290
508.821239,-296.082377,-7105.977043,-77069.207099
508.823815,3701.029710,-10658.965565,-76762.768900
508.826390,3108.864956,-7550.100608,-77682.083497
508.828965,740.205942,-1184.329507,-75077.358804
508.831541,5625.565159,-1628.453072,-79214.274493
508.834116,-5033.400406,7994.224174,-73391.948708
508.836691,-740.205942,-2664.741391,-82125.437386
508.839267,5921.647536,-148.041188,-78907.836294
508.841842,1036.288319,-6365.771101,-79214.274493
508.844417,-2664.741391,0.000000,-72472.634111
508.846993,3552.988522,-5921.647536,-77835.302597
508.849568,-3256.906145,-2072.576638,-71246.881314
508.852143,7846.182985,-740.205942,-71553.319513
508.854718,5181.441594,1480.411884,-70327.566716
508.857294,-5033.400406,10362.883188,-73698.386908
508.859869,8734.430116,-1924.535449,-81052.903688
508.862444,-2812.782580,-6069.688724,-77528.864398
508.865020,148.041188,1036.288319,-75690.235202
508.867595,2812.782580,-2516.700203,-75077.358804
508.870170,148.041188,-1332.370696,-76609.549800
508.872746,444.123565,-7402.059420,-76915.987999
508.875321,-444.123565,-10066.800811,-80440.027290
508.877896,296.082377,-2368.659014,-77375.645298
508.880472,-1628.453072,-7254.018232,-78754.617194
508.883047,3701.029710,5773.606348,-70480.785816
508.885622,2664.741391,-2072.576638,-76303.111601
508.888198,1184.329507,4589.276840,-77222.426198
508.890773,2072.576638,1924.535449,-76609.549800
508.893345,4145.153275,444.123565,-74004.825107
508.895917,740.205942,-7254.018232,-80593.246390
508.898489,7698.141797,-6217.729913,-76303.111601
508.901061,-1480.411884,-8142.265362,-74617.701505
508.903634,1332.370696,2220.617826,-76762.768900
508.906206,4737.318029,10362.883188,-74311.263306
508.908778,6217.729913,13767.830521,-74924.139704
508.911350,2664.741391,8586.388927,-76915.987999
508.913922,-592.164754,10807.006753,-78907.836294
508.916494,-1036.288319,10066.800811,-77222.426198
508.919067,-1184.329507,4441.235652,-76762.768900
508.921639,6365.771101,7698.141797,-73391.948708
508.924211,10214.842000,-1628.453072,-75843.454302
508.926783,-1184.329507,4737.318029,-75996.673402
508.929355,3552.988522,-1776.494261,-77222.426198
508.931927,1924.535449,5773.606348,-74924.139704
508.934500,4589.276840,2516.700203,-75537.016103
508.937072,2072.576638,3552.988522,-78754.617194
508.939644,1776.494261,4737.318029,-74617.701505
508.942216,1036.288319,7550.100608,-78754.617194
508.944788,2812.782580,4441.235652,-73698.386908
508.947360,9030.512492,-3404.947333,-81972.218286
508.949933,-444.123565,-1628.453072,-77988.521696
508.952505,1036.288319,9030.512492,-72319.415011
508.955077,296.082377,7846.182985,-75537.016103
508.957649,-1332.370696,9770.718434,-78141.740796
508.960221,5625.565159,6365.771101,-76762.768900
508.962793,-3849.070898,9622.677246,-74924.139704
508.965366,1332.370696,7994.224174,-76303.111601
508.967938,9918.759623,3997.112087,-76762.768900
508.970510,-6217.729913,2812.782580,-76303.111601
508.973082,-1776.494261,4737.318029,-76762.768900
508.975654,0.000000,-1332.370696,-76456.330700
508.978226,2664.741391,5477.523971,-73545.167808
508.980799,6365.771101,5329.482782,-75843.454302
508.983371,-1628.453072,3849.070898,-80593.246390
508.985943,6365.771101,7254.018232,-75383.797003
508.988515,-3701.029710,4145.153275,-76762.768900
508.991087,6069.688724,-5181.441594,-79367.493593
508.993659,8438.347739,-10658.965565,-75690.235202
508.996229,-2072.576638,-5921.647536,-75537.016103
508.998799,6957.935855,-3256.906145,-74770.920605
509.001369,148.041188,-4737.318029,-77069.207099
509.003939,7254.018232,3256.906145,-75383.797003
509.006509,-2368.659014,888.247130,-77682.083497
509.009079,-3108.864956,1628.453072,-78448.178995
509.011649,8882.471304,-148.041188,-77988.521696
509.014219,-3701.029710,5329.482782,-71093.662214
509.016789,-3108.864956,-2960.823768,-78448.178995
509.019359,5477.523971,-5921.647536,-75077.358804
509.021929,-3849.070898,-10214.842000,-75843.454302
509.024498,1184.329507,-6809.894666,-75383.797003
509.027068,5181.441594,9326.594869,-72472.634111
509.029638,2516.700203,-2072.576638,-80746.465489
509.032208,-2516.700203,3997.112087,-74464.482406
509.034778,3997.112087,4293.194464,-71859.757712
509.037348,-2812.782580,-10362.883188,-82431.875585
509.039918,-1480.411884,-444.123565,-75996.673402
509.042488,3849.070898,-12287.418637,-80593.246390
509.045058,-3552.988522,-2220.617826,-75077.358804
509.047628,10807.006753,-888.247130,-72779.072310
509.050198,-2368.659014,-5921.647536,-77375.645298
509.052767,296.082377,-9326.594869,-77988.521696
509.055337,7254.018232,-1924.535449,-77988.521696
509.057907,1184.329507,3552.988522,-76915.987999
509.060477,3997.112087,-148.041188,-77069.207099
509.063047,6069.688724,12435.459826,-71400.100414
509.065617,-3997.112087,-1332.370696,-75996.673402
509.068187,-1776.494261,-5477.523971,-79214.274493
509.070757,2220.617826,-11547.212695,-78141.740796
509.073327,-592.164754,-2368.659014,-76609.549800
509.075897,2812.782580,9178.553681,-74464.482406
509.078467,5625.565159,10066.800811,-78601.398095
509.081037,-740.205942,16580.613101,-72472.634111
509.083606,5625.565159,5921.647536,-80133.589091
509.086176,-3701.029710,15544.324782,-72319.415011
509.088746,6069.688724,-444.123565,-82431.875585
509.091316,-5329.482782,2220.617826,-76456.330700
509.093886,4145.153275,5625.565159,-73851.606007
509.096456,3108.864956,-148.041188,-75690.235202
509.099023,-2368.659014,888.247130,-78601.398095
509.101589,5625.565159,3701.029710,-72472.634111
509.104156,-1776.494261,4589.276840,-76456.330700
509.106722,3701.029710,592.164754,-79827.150892
509.109289,2072.576638,-2368.659014,-80440.027290
509.111855,5033.400406,19837.519246,-71859.757712
509.114422,5625.565159,-16284.530724,-81665.780087
509.116988,-2960.823768,22946.384202,-64352.021832
509.119555,8290.306550,2664.741391,-75537.016103
509.122121,444.123565,3552.988522,-75537.016103
509.124688,1628.453072,11251.130318,-72779.072310
509.127255,4885.359217,-3108.864956,-81818.999186
509.129821,-1924.535449,18209.066173,-69408.252119
509.132388,8882.471304,-1332.370696,-78141.740796
509.134954,2072.576638,16580.613101,-71553.319513
509.137521,-888.247130,1184.329507,-80133.589091
509.140087,1332.370696,5773.606348,-75077.358804
509.142654,-1776.494261,-148.041188,-74158.044206
509.145220,3997.112087,-888.247130,-78141.740796
509.147787,-2368.659014,2664.741391,-73698.386908
509.150353,5329.482782,7254.018232,-77222.426198
509.152920,4885.359217,7994.224174,-74770.920605
509.155487,-5181.441594,-4441.235652,-80593.246390
509.158053,2812.782580,-2368.659014,-75537.016103
509.160620,-148.041188,-9622.677246,-77682.083497
509.163186,-1184.329507,-1776.494261,-74004.825107
509.165753,6217.729913,-6365.771101,-76149.892501
509.168319,1628.453072,-3701.029710,-73698.386908
509.170886,2664.741391,-4441.235652,-75690.235202
509.173452,592.164754,-4145.153275,-77835.302597
509.176019,7402.059420,8438.347739,-70787.224015
509.178585,1480.411884,4441.235652,-75230.577904
509.181152,3849.070898,592.164754,-75230.577904
509.183718,1036.288319,-1776.494261,-75537.016103
509.186285,-6365.771101,-14656.077652,-83044.751983
509.188852,4441.235652,-4441.235652,-71706.538613
509.191418,5181.441594,13471.748144,-70940.443115
509.193985,2368.659014,-2072.576638,-79214.274493
509.196551,1924.535449,-7402.059420,-80133.589091
509.199118,-2072.576638,-3701.029710,-78448.178995
509.201682,2072.576638,3108.864956,-72012.976812
509.204247,-2664.741391,-2072.576638,-76915.987999
509.206812,8734.430116,-4293.194464,-78907.836294
509.209376,3108.864956,-5773.606348,-75996.673402
509.211941,-10214.842000,-5033.400406,-75230.577904
509.214506,8142.265362,2072.576638,-73698.386908
509.217070,-2812.782580,-5625.565159,-75996.673402
509.219635,-444.123565,-2664.741391,-76456.330700
509.222199,-1036.288319,-3404.947333,-76456.330700
509.224764,-8734.430116,-4441.235652,-82125.437386
509.227329,6809.894666,11843.295072,-72012.976812
509.229893,4589.276840,1776.494261,-75383.797003
509.232458,-1480.411884,-1184.329507,-72319.415011
509.235023,2664.741391,-3849.070898,-77069.207099
509.237587,-1776.494261,-2516.700203,-79214.274493
509.240152,3701.029710,7105.977043,-71400.100414
509.242717,5477.523971,7105.977043,-76303.111601
509.245281,3997.112087,15544.324782,-77069.207099
509.247846,1480.411884,10362.883188,-76915.987999
509.250411,-3997.112087,6957.935855,-76303.111601
509.252975,6217.729913,9178.553681,-72779.072310
509.255540,-5921.647536,-3404.947333,-79214.274493
509.258104,6069.688724,6513.812290,-75537.016103
509.260669,7994.224174,740.205942,-74311.263306
509.263234,-9474.636058,3997.112087,-77988.521696
509.265798,2220.617826,-888.247130,-80286.808190
509.268363,-6069.688724,444.123565,-79827.150892
509.270928,7254.018232,3701.029710,-76762.768900
509.273492,2516.700203,2516.700203,-78448.178995
509.276057,3552.988522,7402.059420,-75996.673402
509.278622,8438.347739,-7846.182985,-79520.712692
509.281186,-2812.782580,16580.613101,-71246.881314
509.283751,6365.771101,3849.070898,-79827.150892
509.286315,-296.082377,4589.276840,-74464.482406
509.288880,1628.453072,6513.812290,-75383.797003
509.291445,7846.182985,5477.523971,-77682.083497
509.294009,-2516.700203,10807.006753,-74158.044206
509.296574,5477.523971,1480.411884,-82585.094684
509.299139,-1332.370696,13175.665768,-73391.948708
509.301703,0.000000,5625.565159,-77528.864398
509.304204,2072.576638,10066.800811,-73698.386908
509.306705,-1628.453072,-6513.812290,-79214.274493
509.309205,1036.288319,7254.018232,-72472.634111
509.311706,2664.741391,1036.288319,-77069.207099
509.314207,5477.523971,4885.359217,-75690.235202
509.316707,4145.153275,-1924.535449,-76149.892501
509.319208,-592.164754,-5181.441594,-77069.207099
509.321709,8882.471304,-1480.411884,-71093.662214
509.324209,-6217.729913,-7698.141797,-76762.768900
509.326710,5625.565159,1036.288319,-72472.634111
509.329211,2960.823768,-9178.553681,-77988.521696
509.331711,-3108.864956,2812.782580,-77222.426198
509.334212,7994.224174,-3404.947333,-77375.645298
509.336713,148.041188,740.205942,-78601.398095
509.339213,-2664.741391,7994.224174,-68335.718422
509.341714,7846.182985,-1776.494261,-80746.465489
509.344215,-5477.523971,-5329.482782,-78448.178995
509.346715,2516.700203,-9178.553681,-75537.016103
509.349216,1332.370696,-740.205942,-71246.881314
509.351717,9326.594869,-2072.576638,-80746.465489
509.354217,2368.659014,-296.082377,-76456.330700
509.356718,-2072.576638,-3256.906145,-77835.302597
509.359219,-1776.494261,-5329.482782,-79827.150892
509.361720,-444.123565,2960.823768,-75077.358804
509.364220,5921.647536,-10066.800811,-80286.808190
509.366721,7550.100608,-3404.947333,-72166.195912
509.369222,-2072.576638,-12731.542202,-79673.931792
509.371722,5773.606348,2220.617826,-75077.358804
509.374223,2664.741391,-5625.565159,-74004.825107
509.376724,-2220.617826,-3256.906145,-77069.207099
509.379224,148.041188,-2960.823768,-75537.016103
509.381725,-2664.741391,-1628.453072,-76915.987999
509.384226,4589.276840,15692.365970,-69714.690318
509.386726,4145.153275,-1628.453072,-79673.931792
509.389227,-1184.329507,2516.700203,-74924.139704
509.391728,888.247130,-10955.047942,-79827.150892
509.394228,-6069.688724,1480.411884,-74617.701505
509.396729,4293.194464,2072.576638,-75537.016103
509.399230,3108.864956,7994.224174,-76456.330700
509.401730,4589.276840,18209.066173,-71400.100414
509.404244,7698.141797,6661.853478,-80899.684589
509.406759,-8142.265362,16432.571912,-72932.291410
509.409274,1480.411884,-148.041188,-81206.122788
509.411788,-3256.906145,3108.864956,-74464.482406
509.414303,-740.205942,5329.482782,-74464.482406
509.416818,3404.947333,-1480.411884,-75383.797003
509.419332,6957.935855,3997.112087,-75690.235202
509.421847,0.000000,-2516.700203,-75690.235202
509.424361,1776.494261,4441.235652,-74004.825107
509.426876,2368.659014,14359.995275,-74311.263306
509.429391,-296.082377,5477.523971,-75383.797003
509.431905,8142.265362,-444.123565,-73851.606007
509.434420,-592.164754,8438.347739,-73085.510509
509.436935,2220.617826,3256.906145,-78294.959896
509.439449,5625.565159,3108.864956,-75383.797003
509.441964,-5033.400406,9326.594869,-74617.701505
509.444479,7402.059420,-2072.576638,-82585.094684
509.446993,1036.288319,4737.318029,-77682.083497
509.449508,1480.411884,11991.336260,-73238.729609
509.452023,7698.141797,9178.553681,-75843.454302
509.454537,-1332.370696,9030.512492,-78754.617194
509.457052,5921.647536,-148.041188,-79827.150892
509.459566,3849.070898,6809.894666,-72166.195912
509.462081,-592.164754,1628.453072,-76915.987999
509.464596,5921.647536,1776.494261,-76456.330700
509.467110,-3701.029710,-2368.659014,-77528.864398
509.469625,1332.370696,-296.082377,-76762.768900
509.472140,3256.906145,-7550.100608,-76303.111601
509.474654,-296.082377,-6217.729913,-79520.712692
509.477169,1184.329507,3997.112087,-72625.853210
509.479684,4885.359217,-3997.112087,-77528.864398
509.482198,-1776.494261,-2368.659014,-78754.617194
509.484713,0.000000,-7550.100608,-78601.398095
509.487228,3701.029710,2220.617826,-71246.881314
509.489742,592.164754,-8438.347739,-80746.465489
509.492257,2368.659014,7846.182985,-74158.044206
509.494771,7994.224174,-4885.359217,-75537.016103
509.497286,740.205942,-2516.700203,-79061.055394
509.499801,-1184.329507,444.123565,-75230.577904
509.502315,-740.205942,-2072.576638,-77682.083497
509.504842,-2220.617826,-10362.883188,-78601.398095
509.507368,4737.318029,6069.688724,-73085.510509
509.509894,7254.018232,12139.377449,-74158.044206
509.512420,2220.617826,-5181.441594,-80746.465489
509.514946,1628.453072,-3552.988522,-73545.167808
509.517473,-2220.617826,-9918.759623,-81665.780087
509.519999,1036.288319,-8438.347739,-80593.246390
509.522525,6365.771101,-4145.153275,-72932.291410
509.525051,-740.205942,-8438.347739,-78141.740796
509.527578,7550.100608,2220.617826,-71553.319513
509.530104,-148.041188,-11695.253884,-82431.875585
509.532630,-1628.453072,5181.441594,-72779.072310
509.535156,3108.864956,-6069.688724,-81206.122788
509.537682,740.205942,7402.059420,-76762.768900
509.540209,5329.482782,444.123565,-73851.606007
509.542735,-296.082377,-9030.512492,-81052.903688
509.545261,148.041188,4885.359217,-70634.004916
509.547787,4145.153275,-1628.453072,-79673.931792
509.550313,-2664.741391,9030.512492,-75537.016103
509.552840,3701.029710,1924.535449,-78141.740796
509.555366,1184.329507,16580.613101,-71553.319513
509.557892,3701.029710,5921.647536,-79520.712692
509.560418,-4589.276840,11103.089130,-76456.330700
509.562945,888.247130,5181.441594,-77835.302597
509.565471,3404.947333,2072.576638,-77069.207099
509.567997,5477.523971,5625.565159,-73391.948708
509.570523,3552.988522,3256.906145,-75383.797003
509.573049,-148.041188,-1184.329507,-75996.673402
509.575576,3404.947333,296.082377,-77222.426198
509.578102,-444.123565,-2072.576638,-79520.712692
509.580628,2368.659014,14063.912898,-74464.482406
509.583154,3552.988522,10510.924376,-73545.167808
509.585680,1332.370696,2812.782580,-77222.426198
509.588207,3997.112087,10066.800811,-73391.948708
509.590733,6217.729913,-148.041188,-77682.083497
509.593259,-1628.453072,11991.336260,-69408.252119
509.595785,1480.411884,2220.617826,-80746.465489
509.598312,2516.700203,-444.123565,-80133.589091
509.600838,4441.235652,15692.365970,-72472.634111
509.603364,1628.453072,3108.864956,-78601.398095
509.605900,296.082377,11103.089130,-75843.454302
509.608436,296.082377,2220.617826,-77835.302597
509.610972,1332.370696,4885.359217,-75690.235202
509.613507,740.205942,5033.400406,-73851.606007
509.616043,6809.894666,1480.411884,-77222.426198
509.618579,1776.494261,3849.070898,-72012.976812
509.621115,-4145.153275,-8142.265362,-79061.055394
509.623651,2960.823768,-2812.782580,-75230.577904
509.626187,6809.894666,-9622.677246,-78294.959896
509.628723,-4441.235652,2368.659014,-75077.358804
509.631259,8438.347739,-5625.565159,-78907.836294
509.633794,296.082377,-3997.112087,-78141.740796
509.636330,-2368.659014,1036.288319,-75843.454302
509.638866,10658.965565,-2812.782580,-76762.768900
509.641402,-6069.688724,-5033.400406,-77528.864398
509.643938,2220.617826,-5329.482782,-77375.645298
509.646474,0.000000,2368.659014,-73698.386908
509.649010,-592.164754,-740.205942,-77069.207099
509.651546,10807.006753,10066.800811,-66650.308326
509.654082,-5033.400406,-11399.171507,-82431.875585
509.656617,-592.164754,-888.247130,-78754.617194
509.659153,3404.947333,7105.977043,-73085.510509
509.661689,-1332.370696,-4441.235652,-80593.246390
509.664225,4145.153275,-5033.400406,-78294.959896
509.666761,2812.782580,-5773.606348,-78141.740796
509.669297,-3997.112087,-5329.482782,-75383.797003
509.671833,9918.759623,-1628.453072,-72932.291410
509.674369,-5181.441594,-15100.201217,-81972.218286
509.676904,3849.070898,1036.288319,-74464.482406
509.679440,2368.659014,-6809.894666,-75537.016103
509.681976,-4589.276840,-1628.453072,-76456.330700
509.684512,3256.906145,3849.070898,-73238.729609
509.687048,6365.771101,-3849.070898,-82431.875585
509.689584,9326.594869,10510.924376,-67416.403824
509.692120,-1184.329507,-2368.659014,-78601.398095
509.694656,4589.276840,-1776.494261,-77988.521696
509.697191,5477.523971,-5773.606348,-77682.083497
509.699727,-4293.194464,7994.224174,-74158.044206
509.702263,9326.594869,8290.306550,-76149.892501
509.704799,5921.647536,12287.418637,-76762.768900
509.707341,-4145.153275,9770.718434,-79061.055394
509.709884,2516.700203,10066.800811,-76303.111601
509.712426,444.123565,4441.235652,-77988.521696
509.714969,9622.677246,3552.988522,-79673.931792
509.717511,3108.864956,1776.494261,-76303.111601
509.720054,4293.194464,4737.318029,-74617.701505
509.722596,3997.112087,296.082377,-74004.825107
509.725138,-148.041188,-888.247130,-81665.780087
509.727681,444.123565,-4293.194464,-78294.959896
509.730223,3256.906145,12139.377449,-75843.454302
509.732766,5329.482782,17912.983796,-76456.330700
509.735308,2664.741391,-6217.729913,-78294.959896
509.737850,-3404.947333,6661.853478,-73698.386908
509.740393,2220.617826,7105.977043,-74311.263306
509.742935,5181.441594,5181.441594,-76303.111601
509.745478,3701.029710,19985.560434,-68029.280222
509.748020,2664.741391,3701.029710,-79673.931792
509.750562,-4441.235652,7402.059420,-75690.235202
509.753105,-2072.576638,888.247130,-81665.780087
509.755647,-5625.565159,6365.771101,-72166.195912
509.758190,3849.070898,15840.407159,-72625.853210
509.760732,-1924.535449,3997.112087,-76915.987999
509.763275,1480.411884,4737.318029,-76762.768900
509.765817,2664.741391,-888.247130,-75843.454302
509.768359,-3404.947333,1924.535449,-79367.493593
509.770902,3552.988522,-3849.070898,-76149.892501
509.773444,-444.123565,-10510.924376,-78294.959896
509.775987,2960.823768,-1480.411884,-73085.510509
509.778529,4589.276840,-2220.617826,-73698.386908
509.781071,-3849.070898,1628.453072,-77528.864398
509.783614,8142.265362,296.082377,-72932.291410
509.786156,-2220.617826,-4293.194464,-78448.178995
509.788699,3552.988522,-5181.441594,-81359.341888
509.791241,4145.153275,-4293.194464,-77069.207099
509.793783,-5625.565159,-4441.235652,-79827.150892
509.796326,6957.935855,-1184.329507,-75537.016103
509.798868,-148.041188,-2072.576638,-76609.549800
509.801411,4589.276840,-9770.718434,-79214.274493
509.803953,4145.153275,9030.512492,-69561.471218
509.806496,2220.617826,-1332.370696,-81512.560987
509.809044,10807.006753,6661.853478,-74311.263306
509.811592,-14952.160028,-7402.059420,-79520.712692
509.814140,8882.471304,-2072.576638,-74464.482406
509.816688,1628.453072,-148.041188,-71706.538613
509.819236,3849.070898,-6957.935855,-74924.139704
509.821784,6069.688724,-444.123565,-70940.443115
509.824332,3701.029710,-11103.089130,-80286.808190
509.826880,-444.123565,-7254.018232,-79061.055394
509.829428,-4737.318029,-4885.359217,-75843.454302
509.831976,3108.864956,4589.276840,-71859.757712
509.834524,4293.194464,3108.864956,-78601.398095
509.837072,2368.659014,4145.153275,-75843.454302
509.839620,-592.164754,-2220.617826,-78448.178995
509.842168,3701.029710,1184.329507,-74617.701505
509.844716,0.000000,-740.205942,-76762.768900
509.847264,-1480.411884,4441.235652,-75537.016103
509.849812,-444.123565,1776.494261,-75383.797003
509.852360,4589.276840,16876.695478,-72472.634111
509.854908,-888.247130,4441.235652,-78141.740796
509.857456,740.205942,11991.336260,-76149.892501
509.860004,4885.359217,1924.535449,-77528.864398
509.862552,4441.235652,4737.318029,-77835.302597
509.865100,-740.205942,5921.647536,-76456.330700
509.867648,2072.576638,-1776.494261,-77375.645298
509.870196,1924.535449,9622.677246,-67109.965625
509.872744,296.082377,-3404.947333,-81206.122788
509.875292,-2220.617826,-6957.935855,-79061.055394
509.877840,2072.576638,24426.796086,-67569.622924
509.880388,9326.594869,-5329.482782,-79214.274493
509.882936,296.082377,9474.636058,-74770.920605
509.885484,-1628.453072,17912.983796,-70787.224015
509.888032,8142.265362,740.205942,-75383.797003
509.890584,148.041188,20873.807564,-69714.690318
509.893136,740.205942,3256.906145,-78754.617194
509.895688,5921.647536,7994.224174,-76303.111601
509.898241,1332.370696,4885.359217,-73851.606007
509.900793,0.000000,7846.182985,-79061.055394
509.903345,1628.453072,9326.594869,-72012.976812
509.905897,4589.276840,1924.535449,-78294.959896
509.908449,2812.782580,13323.706956,-69408.252119
509.911001,6957.935855,1036.288319,-79061.055394
509.913554,1332.370696,4145.153275,-76915.987999
509.916106,1480.411884,-8586.388927,-74924.139704
509.918658,2960.823768,-7105.977043,-75537.016103
509.921210,5773.606348,-10807.006753,-81665.780087
509.923762,-2516.700203,-888.247130,-74924.139704
509.926314,3256.906145,3701.029710,-71859.757712
509.928867,4589.276840,-1628.453072,-77375.645298
509.931419,-8290.306550,2516.700203,-75383.797003
509.933971,12731.542202,-6365.771101,-83504.409282
509.936523,-13767.830521,1184.329507,-74311.263306
509.939075,9622.677246,-4145.153275,-77988.521696
509.941628,-888.247130,6957.935855,-72472.634111
509.944180,2220.617826,-8438.347739,-79367.493593
509.946732,3256.906145,4885.359217,-73391.948708
509.949284,-4441.235652,-6069.688724,-77835.302597
509.951836,9326.594869,-296.082377,-76456.330700
509.954388,0.000000,14952.160028,-68182.499322
509.956941,1924.535449,-15396.283594,-84423.723880
509.959493,3404.947333,-1036.288319,-77069.207099
509.962045,-9622.677246,-12435.459826,-81359.341888
509.964597,444.123565,740.205942,-70480.785816
509.967149,11103.089130,-4589.276840,-74770.920605
509.969701,-9474.636058,-9030.512492,-79827.150892
509.972254,10362.883188,2812.782580,-69101.813920
509.974806,-3552.988522,-8734.430116,-80440.027290
509.977358,-2072.576638,9326.594869,-71400.100414
509.979910,8734.430116,-5625.565159,-82431.875585
509.982462,-2812.782580,6661.853478,-72472.634111
509.985014,592.164754,-1332.370696,-77528.864398
509.987567,1332.370696,6069.688724,-74924.139704
509.990119,888.247130,2516.700203,-77375.645298
509.992674,1776.494261,3701.029710,-77375.645298
509.995229,-740.205942,296.082377,-77375.645298
509.997784,7846.182985,11991.336260,-75690.235202
510.000339,444.123565,10658.965565,-74617.701505
510.002894,296.082377,9770.718434,-76762.768900
510.005449,4589.276840,8290.306550,-73851.606007
510.008004,3552.988522,148.041188,-80899.684589
510.010559,1628.453072,7994.224174,-71246.881314
510.013114,4737.318029,-888.247130,-80286.808190
510.015669,1036.288319,5329.482782,-76609.549800
510.018224,1184.329507,2368.659014,-75843.454302
510.020779,2368.659014,3849.070898,-74924.139704
510.023334,2516.700203,6513.812290,-75383.797003
510.025889,-592.164754,3552.988522,-78141.740796
510.028444,3108.864956,4441.235652,-77835.302597
510.030999,6809.894666,-740.205942,-77835.302597
510.033554,-1924.535449,17172.777854,-70940.443115
510.036109,-1924.535449,6661.853478,-76762.768900
510.038664,2368.659014,9622.677246,-74158.044206
510.041219,-2368.659014,7846.182985,-77222.426198
510.043774,-2960.823768,6069.688724,-75690.235202
510.046329,-2072.576638,6661.853478,-78294.959896
510.048884,10807.006753,2960.823768,-75077.358804
510.051439,-148.041188,6957.935855,-73851.606007
510.053994,6365.771101,1480.411884,-78601.398095
510.056549,740.205942,2516.700203,-75383.797003
510.059104,-5625.565159,-11695.253884,-81206.122788
510.061659,5033.400406,-3552.988522,-74158.044206
510.064214,5477.523971,-9770.718434,-79214.274493
510.066769,-1184.329507,-3108.864956,-77988.521696
510.069324,6365.771101,1036.288319,-73085.510509
510.071879,-1332.370696,-4885.359217,-78141.740796
510.074434,3108.864956,4293.194464,-72779.072310
510.076989,-5625.565159,-8734.430116,-80899.684589
510.079544,5773.606348,5625.565159,-72932.291410
510.082099,-7698.141797,-14359.995275,-86568.791274
510.084654,4441.235652,-2220.617826,-76456.330700
510.087209,7846.182985,-12287.418637,-77375.645298
510.089764,-9622.677246,7105.977043,-71246.881314
510.092319,12287.418637,2516.700203,-75230.577904
510.094876,4441.235652,-5329.482782,-79980.369991
510.097434,-6069.688724,-2812.782580,-79827.150892
510.099991,13915.871710,2516.700203,-74770.920605
510.102549,-5921.647536,-14359.995275,-77682.083497
510.105106,6957.935855,-296.082377,-78141.740796
510.107664,8142.265362,-4885.359217,-72625.853210
510.110221,-6217.729913,-1480.411884,-74158.044206
510.112778,10362.883188,-6661.853478,-74158.044206
510.115336,-9030.512492,-8142.265362,-79980.369991
510.117893,1628.453072,-1776.494261,-78294.959896
510.120451,4293.194464,-4441.235652,-79673.931792
510.123008,2368.659014,9178.553681,-72779.072310
510.125566,2812.782580,-888.247130,-78448.178995
510.128123,-592.164754,3997.112087,-77528.864398
510.130681,4293.194464,2960.823768,-75230.577904
510.133238,-2960.823768,2812.782580,-76149.892501
510.135796,7105.977043,6661.853478,-73085.510509
510.138353,3404.947333,11251.130318,-73698.386908
510.140911,-1776.494261,5921.647536,-78448.178995
510.143468,4737.318029,9030.512492,-80286.808190
510.146026,296.082377,3108.864956,-77222.426198
510.148583,-1036.288319,11399.171507,-73085.510509
510.151141,3701.029710,5477.523971,-74770.920605
510.153698,1776.494261,1036.288319,-81052.903688
510.156256,3404.947333,8882.471304,-69255.033019
510.158813,296.082377,5329.482782,-77682.083497
510.161371,2220.617826,-5033.400406,-81052.903688
510.163928,-888.247130,-1184.329507,-77988.521696
510.166486,-2516.700203,9474.636058,-74617.701505
510.169043,9030.512492,4885.359217,-74770.920605
510.171601,1480.411884,7698.141797,-76149.892501
510.174158,6661.853478,9030.512492,-73391.948708
510.176716,2368.659014,3256.906145,-76303.111601
510.179273,-3997.112087,9918.759623,-76915.987999
510.181831,5181.441594,6365.771101,-77222.426198
510.184388,-4737.318029,10510.924376,-73391.948708
510.186946,4145.153275,5921.647536,-77375.645298
510.189503,4293.194464,444.123565,-77988.521696
510.192061,148.041188,3108.864956,-76303.111601
510.194618,7846.182985,6957.935855,-73698.386908
510.197178,3404.947333,4145.153275,-78448.178995
510.199737,-2516.700203,-12435.459826,-81206.122788
510.202297,-1776.494261,-7846.182985,-77835.302597
510.204857,9622.677246,-6069.688724,-72472.634111
510.207416,-2812.782580,-3256.906145,-77069.207099
510.209976,3404.947333,4293.194464,-73698.386908
510.212535,2220.617826,-2812.782580,-78294.959896
510.215095,-6809.894666,-5033.400406,-76609.549800
510.217655,6217.729913,-148.041188,-75077.358804
510.220214,2516.700203,-2960.823768,-77222.426198
510.222774,-14359.995275,-9326.594869,-77528.864398
510.225333,17764.942608,-148.041188,-74924.139704
510.227893,-4293.194464,-10658.965565,-81206.122788
510.230453,1480.411884,-1332.370696,-74158.044206
510.233012,8586.388927,7698.141797,-73545.167808
510.235572,-4145.153275,8438.347739,-74311.263306
510.238131,1776.494261,-3849.070898,-79214.274493
510.240691,-296.082377,-5625.565159,-74924.139704
510.243251,5773.606348,-11103.089130,-77682.083497
510.245810,1480.411884,-5329.482782,-75077.358804
510.248370,1184.329507,-4293.194464,-73851.606007
510.250930,4737.318029,-2516.700203,-73085.510509
510.253489,4145.153275,-4589.276840,-75537.016103
510.256049,-4589.276840,-4293.194464,-77069.207099
510.258608,5033.400406,2664.741391,-75690.235202
510.261168,-2072.576638,-8734.430116,-82125.437386
510.263728,7550.100608,7105.977043,-72166.195912
510.266287,6069.688724,-3849.070898,-77988.521696
510.268847,444.123565,9474.636058,-78141.740796
510.271406,9918.759623,5921.647536,-72472.634111
510.273966,-5921.647536,9326.594869,-76149.892501
510.276526,6809.894666,6069.688724,-74770.920605
510.279085,1776.494261,-2220.617826,-83044.751983
510.281645,148.041188,14508.036463,-72779.072310
510.284204,3997.112087,4589.276840,-78448.178995
510.286764,1480.411884,10658.965565,-75996.673402
510.289324,2960.823768,5625.565159,-76456.330700
510.291883,-1332.370696,9474.636058,-72166.195912
510.294443,740.205942,-1628.453072,-84117.285680
510.297003,-2072.576638,-5921.647536,-79214.274493
510.299562,-4885.359217,3256.906145,-72779.072310
510.302122,7254.018232,7994.224174,-73085.510509
510.304682,888.247130,9918.759623,-74158.044206
510.307242,2664.741391,-296.082377,-81052.903688
510.309802,3552.988522,10955.047942,-73085.510509
510.312362,1036.288319,2664.741391,-78448.178995
510.314922,6513.812290,13027.624579,-75383.797003
510.317481,-4885.359217,9326.594869,-76303.111601
510.320041,6661.853478,11103.089130,-75230.577904
510.322601,-2368.659014,7698.141797,-73238.729609
510.325161,-5181.441594,7105.977043,-78448.178995
510.327721,2960.823768,6069.688724,-75996.673402
510.330281,-1036.288319,2664.741391,-76915.987999
510.332841,1924.535449,3256.906145,-77375.645298
510.335400,2368.659014,740.205942,-76762.768900
510.337960,-1036.288319,-7698.141797,-73698.386908
510.340520,2220.617826,-6217.729913,-75077.358804
510.343080,3404.947333,-10807.006753,-79980.369991
510.345640,3256.906145,444.123565,-73698.386908
510.348200,3701.029710,-592.164754,-76149.892501
510.350760,3552.988522,2220.617826,-73545.167808
510.353320,-5033.400406,-2220.617826,-77528.864398
510.355879,4145.153275,-4145.153275,-77528.864398
510.358439,-1924.535449,3256.906145,-71553.319513
510.360999,-296.082377,-13767.830521,-87641.324971
510.363559,7698.141797,3701.029710,-74004.825107
510.366119,-1036.288319,2664.741391,-73698.386908
510.368679,2960.823768,-4293.194464,-78141.740796
510.371239,-2220.617826,7105.977043,-71093.662214
510.373798,2960.823768,4145.153275,-75690.235202
510.376358,5625.565159,-10658.965565,-80440.027290
510.378918,0.000000,-9178.553681,-80133.589091
510.381478,1332.370696,-16136.489536,-81665.780087
510.384038,1184.329507,7402.059420,-69867.909418
510.386598,-3108.864956,-10510.924376,-79061.055394
510.389158,4293.194464,-1628.453072,-77375.645298
510.391718,-1184.329507,-11399.171507,-78754.617194
510.394277,296.082377,-9178.553681,-83197.971083
510.396837,5477.523971,3849.070898,-73238.729609
510.399397,3108.864956,-2812.782580,-79980.369991
510.401957,1480.411884,740.205942,-77682.083497
510.404517,6661.853478,-888.247130,-77375.645298
510.407078,-1924.535449,9474.636058,-74004.825107
510.409638,-1924.535449,7254.018232,-76456.330700
510.412199,2072.576638,5329.482782,-73391.948708
510.414759,148.041188,12879.583391,-72319.415011
510.417320,2368.659014,148.041188,-79520.712692
510.419881,-1628.453072,9030.512492,-78141.740796
510.422441,1480.411884,6069.688724,-77835.302597
510.425002,2516.700203,7105.977043,-75843.454302
510.427562,-1036.288319,9030.512492,-76456.330700
510.430123,6069.688724,-1184.329507,-77682.083497
510.432683,6217.729913,1628.453072,-71859.757712
510.435244,444.123565,7550.100608,-76303.111601
510.437805,4885.359217,592.164754,-78907.836294
510.440365,11251.130318,888.247130,-79827.150892
510.442926,-7254.018232,592.164754,-77222.426198
510.445486,3701.029710,11843.295072,-72472.634111
510.448047,-3108.864956,8142.265362,-75843.454302
510.450607,-3552.988522,10807.006753,-76303.111601
510.453168,5773.606348,14656.077652,-73545.167808
510.455729,296.082377,5181.441594,-81512.560987
510.458289,1776.494261,10510.924376,-77222.426198
510.460850,2664.741391,4441.235652,-77682.083497
510.463410,-2664.741391,3256.906145,-75077.358804
510.465971,4441.235652,6957.935855,-73391.948708
510.468531,-1332.370696,-592.164754,-77988.521696
510.471092,4737.318029,3552.988522,-74311.263306
510.473653,-740.205942,-11251.130318,-77835.302597
510.476213,4589.276840,-9770.718434,-77069.207099
510.478774,4145.153275,-5921.647536,-76762.768900
510.481334,-444.123565,-4589.276840,-78294.959896
510.483895,2368.659014,6957.935855,-70174.347617
510.486455,5033.400406,1036.288319,-74004.825107
510.489016,-3701.029710,888.247130,-77222.426198
510.491577,-5033.400406,-6957.935855,-82278.656485
510.494137,9622.677246,-8290.306550,-79673.931792
510.496698,-14656.077652,-8586.388927,-77682.083497
510.499258,11695.253884,-8438.347739,-77069.207099
510.501819,-1776.494261,-444.123565,-73545.167808
510.504335,-2960.823768,11103.089130,-71859.757712
510.506852,9622.677246,-6217.729913,-78601.398095
510.509368,-1480.411884,-6217.729913,-78294.959896
510.511884,-5033.400406,6957.935855,-76303.111601
510.514401,11399.171507,-21169.889941,-82278.656485
510.516917,-5329.482782,9770.718434,-67109.965625
510.519434,5477.523971,-18653.189738,-83197.971083
510.521950,3404.947333,5329.482782,-70940.443115
510.524467,4145.153275,-12435.459826,-78754.617194
510.526983,-1332.370696,-3404.947333,-74924.139704
510.529499,4441.235652,148.041188,-75690.235202
510.532016,4885.359217,-9474.636058,-80286.808190
510.534532,-1332.370696,9918.759623,-67416.403824
510.537049,10066.800811,-5921.647536,-81665.780087
510.539565,-3552.988522,9770.718434,-75230.577904
510.542082,-1480.411884,8586.388927,-75077.358804
510.544598,2960.823768,13175.665768,-74311.263306
510.547114,1332.370696,3849.070898,-79827.150892
510.549631,3108.864956,2072.576638,-78141.740796
510.552147,1036.288319,9326.594869,-72779.072310
510.554664,6217.729913,3256.906145,-79673.931792
510.557180,3997.112087,11547.212695,-72625.853210
510.559697,-592.164754,6069.688724,-79827.150892
510.562213,2516.700203,2220.617826,-76762.768900
510.564729,-888.247130,-1480.411884,-81359.341888
510.567246,444.123565,-444.123565,-74924.139704
510.569762,4737.318029,20133.601622,-68795.375720
510.572279,3997.112087,-15100.201217,-84883.381178
510.574795,-6217.729913,6069.688724,-77069.207099
510.577312,740.205942,17320.819043,-73238.729609
510.579828,-148.041188,740.205942,-80133.589091
510.582344,-3404.947333,22058.137072,-70174.347617
510.584861,3108.864956,-1628.453072,-82585.094684
510.587377,148.041188,7846.182985,-76915.987999
510.589894,2812.782580,3997.112087,-77528.864398
510.592410,3552.988522,12287.418637,-74004.825107
510.594927,-148.041188,-592.164754,-78448.178995
510.597443,5773.606348,8142.265362,-73545.167808
510.599959,-1036.288319,2516.700203,-72932.291410
510.602476,-2960.823768,1924.535449,-77375.645298
510.605002,7698.141797,-5773.606348,-75230.577904
510.607529,-5181.441594,-18061.024985,-81972.218286
510.610055,9918.759623,-1480.411884,-69867.909418
510.612582,-1776.494261,-8734.430116,-81512.560987
510.615108,6217.729913,7254.018232,-73085.510509
510.617635,3849.070898,-5181.441594,-78141.740796
510.620161,-3997.112087,4885.359217,-75843.454302
510.622688,5033.400406,-1776.494261,-77069.207099
510.625214,-2664.741391,-6809.894666,-79367.493593
510.627740,4293.194464,-296.082377,-71093.662214
510.630267,3404.947333,-1036.288319,-77988.521696
510.632793,-3701.029710,-1776.494261,-77988.521696
510.635320,11251.130318,740.205942,-75383.797003
510.637846,-9326.594869,2220.617826,-73391.948708
510.640373,1628.453072,-4885.359217,-82431.875585
510.642899,3552.988522,0.000000,-75383.797003
510.645426,-2812.782580,-10362.883188,-76456.330700
510.647952,296.082377,-5329.482782,-78141.740796
510.650479,3404.947333,-5773.606348,-74464.482406
510.653005,6217.729913,-5181.441594,-77835.302597
510.655532,592.164754,-592.164754,-70480.785816
510.658058,2960.823768,-1628.453072,-76915.987999
510.660585,296.082377,-2368.659014,-78141.740796
510.663111,1184.329507,-1480.411884,-77375.645298
510.665638,-3256.906145,444.123565,-75537.016103
510.668164,1924.535449,4293.194464,-76149.892501
510.670690,1480.411884,9622.677246,-75077.358804
510.673217,1924.535449,11991.336260,-74924.139704
510.675743,3552.988522,6809.894666,-74617.701505
510.678270,1480.411884,9474.636058,-75537.016103
510.680796,2516.700203,-1184.329507,-80440.027290
510.683323,1332.370696,6957.935855,-73238.729609
510.685849,5773.606348,6069.688724,-77528.864398
510.688376,-6365.771101,8142.265362,-75996.673402
510.690902,444.123565,9474.636058,-74924.139704
510.693429,9326.594869,-740.205942,-74924.139704
510.695955,1332.370696,-3108.864956,-74004.825107
510.698482,5181.441594,12583.501014,-72319.415011
510.701008,1776.494261,1332.370696,-78141.740796
510.703535,-2516.700203,14211.954086,-72625.853210
510.706070,1776.494261,-4589.276840,-80746.465489
510.708605,6809.894666,10510.924376,-74311.263306
510.711140,2812.782580,8586.388927,-75230.577904
510.713675,-7846.182985,8438.347739,-74924.139704
510.716210,9178.553681,9918.759623,-74004.825107
510.718746,-5329.482782,3256.906145,-80899.684589
510.721281,2516.700203,10066.800811,-72012.976812
510.723816,3552.988522,148.041188,-77682.083497
510.726351,740.205942,4441.235652,-75843.454302
510.728886,3997.112087,7254.018232,-73851.606007
510.731421,4737.318029,8734.430116,-73851.606007
510.733957,-4589.276840,-11843.295072,-82125.437386
510.736492,-148.041188,-11399.171507,-78907.836294
510.739027,-1332.370696,-11991.336260,-78754.617194
510.741562,4885.359217,-3552.988522,-75996.673402
510.744097,6069.688724,3256.906145,-72625.853210
510.746632,1184.329507,-444.123565,-78448.178995
510.749168,888.247130,4145.153275,-73698.386908
510.751703,-3701.029710,-3997.112087,-78754.617194
510.754238,10362.883188,-3701.029710,-76609.549800
510.756773,-2072.576638,-9030.512492,-75843.454302
510.759308,-2960.823768,-6661.853478,-79061.055394
510.761843,11695.253884,9770.718434,-68182.499322
510.764379,1332.370696,-6661.853478,-82125.437386
510.766914,-6661.853478,3256.906145,-72472.634111
510.769449,10214.842000,-9178.553681,-81359.341888
510.771984,-4885.359217,-3701.029710,-75996.673402
510.774519,6217.729913,-12879.583391,-81512.560987
510.777054,3701.029710,-2220.617826,-72932.291410
510.779590,740.205942,-1628.453072,-74004.825107
510.782125,2664.741391,-4293.194464,-76149.892501
510.784660,-3108.864956,-1184.329507,-75996.673402
510.787195,8734.430116,-7105.977043,-79367.493593
510.789730,-5477.523971,4589.276840,-71400.100414
510.792265,4293.194464,-4145.153275,-79673.931792
510.794801,1924.535449,-9622.677246,-78907.836294
510.797336,-1480.411884,8734.430116,-75383.797003
510.799871,6661.853478,12731.542202,-74158.044206
510.802406,444.123565,17024.736666,-74311.263306
510.804941,444.123565,7105.977043,-78141.740796
510.807484,740.205942,4441.235652,-77375.645298
510.810027,296.082377,4441.235652,-76762.768900
510.812569,-592.164754,-148.041188,-81206.122788
510.815112,8438.347739,9770.718434,-73698.386908
510.817655,3849.070898,7402.059420,-74158.044206
510.820197,-6661.853478,17468.860231,-70940.443115
510.822740,4441.235652,5329.482782,-76456.330700
510.825283,1924.535449,3404.947333,-74924.139704
510.827825,2368.659014,-1332.370696,-76609.549800
510.830368,1184.329507,-6809.894666,-79980.369991
510.832911,1332.370696,7105.977043,-77988.521696
510.835453,6809.894666,4441.235652,-78294.959896
510.837996,-5773.606348,20281.642811,-72319.415011
510.840539,1776.494261,10510.924376,-76149.892501
510.843081,740.205942,8438.347739,-77528.864398
510.845624,1036.288319,5181.441594,-76915.987999
510.848167,2516.700203,8142.265362,-77375.645298
510.850709,2516.700203,4885.359217,-77375.645298
510.853252,-740.205942,5329.482782,-79367.493593
510.855795,2368.659014,6217.729913,-74158.044206
510.858337,-888.247130,2960.823768,-78141.740796
510.860880,-296.082377,-3997.112087,-77069.207099
510.863423,-148.041188,-10510.924376,-76303.111601
510.865966,5033.400406,-8438.347739,-76609.549800
510.868508,-5773.606348,-8290.306550,-78907.836294
510.871051,10807.006753,-2516.700203,-73851.606007
510.873594,3256.906145,3849.070898,-74311.263306
510.876136,-148.041188,4441.235652,-76303.111601
510.878679,5033.400406,-1184.329507,-77835.302597
510.881222,4441.235652,-5329.482782,-77375.645298
510.883764,-1036.288319,-10658.965565,-76456.330700
510.886307,148.041188,-2368.659014,-75996.673402
510.888850,8586.388927,18653.189738,-67416.403824
510.891392,7402.059420,2368.659014,-77682.083497
510.893935,-8142.265362,-14359.995275,-80440.027290
510.896478,8142.265362,11399.171507,-67263.184724
510.899020,8882.471304,-10807.006753,-76609.549800
510.901563,-2516.700203,-3108.864956,-77528.864398
510.904106,9474.636058,-8586.388927,-76915.987999
510.906648,-1036.288319,-3108.864956,-74617.701505
510.909196,-1924.535449,-2072.576638,-76609.549800
510.911744,5181.441594,-2812.782580,-77222.426198
510.914292,-9622.677246,6513.812290,-73698.386908
510.916839,10510.924376,-5033.400406,-80593.246390
510.919387,-1332.370696,-5773.606348,-75537.016103
510.921935,1332.370696,-4885.359217,-81512.560987
510.924483,7105.977043,10362.883188,-74004.825107
510.927030,-4589.276840,14952.160028,-75690.235202
510.929578,5773.606348,14063.912898,-77835.302597
510.932126,-1776.494261,9622.677246,-76149.892501
510.934674,-2516.700203,3404.947333,-78141.740796
510.937221,9474.636058,4737.318029,-74004.825107
510.939769,-6513.812290,-148.041188,-80286.808190
510.942317,7550.100608,10510.924376,-74311.263306
510.944864,2072.576638,6513.812290,-77682.083497
510.947412,-3997.112087,12583.501014,-74924.139704
510.949960,4145.153275,6217.729913,-77375.645298
510.952508,-2812.782580,-8586.388927,-81665.780087
510.955055,1480.411884,6661.853478,-74617.701505
510.957603,444.123565,-8290.306550,-82431.875585
510.960151,9178.553681,10066.800811,-73391.948708
510.962699,8290.306550,12731.542202,-72319.415011
510.965246,-2220.617826,13767.830521,-77988.521696
510.967794,2368.659014,16432.571912,-74464.482406
510.970342,740.205942,1332.370696,-79520.712692
510.972890,2516.700203,9918.759623,-73851.606007
510.975437,9178.553681,-1628.453072,-80286.808190
510.977985,-3552.988522,6809.894666,-76609.549800
510.980533,7402.059420,5921.647536,-75843.454302
510.983081,-2960.823768,7846.182985,-74311.263306
510.985628,592.164754,-296.082377,-77835.302597
510.988176,3997.112087,-9918.759623,-74770.920605
510.990724,-4589.276840,-11251.130318,-76149.892501
510.993271,4145.153275,-5625.565159,-76762.768900
510.995819,5921.647536,-5477.523971,-76303.111601
510.998367,-444.123565,888.247130,-77375.645298
511.000915,5329.482782,3404.947333,-73545.167808
511.003462,-4145.153275,-1628.453072,-76762.768900
511.006010,7698.141797,1776.494261,-74770.920605
511.008558,740.205942,-10214.842000,-75537.016103
511.011110,-7698.141797,-13915.871710,-80746.465489
511.013663,4885.359217,-2664.741391,-72932.291410
511.016215,2516.700203,8882.471304,-72319.415011
511.018768,-740.205942,9474.636058,-73085.510509
511.021320,5625.565159,-6809.894666,-78448.178995
511.023873,592.164754,-12435.459826,-79673.931792
511.026425,2516.700203,-11843.295072,-78294.959896
511.028978,1332.370696,-8438.347739,-73698.386908
511.031530,148.041188,-8586.388927,-77682.083497
511.034083,-1036.288319,3108.864956,-73545.167808
511.036635,3701.029710,-1924.535449,-79673.931792
511.039188,1924.535449,0.000000,-75843.454302
511.041740,-2516.700203,2516.700203,-73545.167808
511.044293,1776.494261,-6957.935855,-78601.398095
511.046845,-1480.411884,-7105.977043,-76762.768900
511.049398,1332.370696,3997.112087,-76915.987999
511.051950,1332.370696,11695.253884,-75690.235202
511.054503,9474.636058,17616.901420,-74158.044206
511.057055,888.247130,14063.912898,-75077.358804
511.059608,-4589.276840,3256.906145,-79214.274493
511.062160,3552.988522,8438.347739,-74004.825107
511.064713,-1628.453072,-2960.823768,-81206.122788
511.067265,5477.523971,8438.347739,-75077.358804
511.069817,5181.441594,10066.800811,-72319.415011
511.072370,3108.864956,7994.224174,-76762.768900
511.074922,9474.636058,10807.006753,-71400.100414
511.077475,-4293.194464,-740.205942,-76303.111601
511.080027,-148.041188,-5181.441594,-77222.426198
511.082580,8734.430116,148.041188,-78601.398095
511.085132,-296.082377,7550.100608,-76915.987999
511.087685,2220.617826,14508.036463,-75230.577904
511.090237,1924.535449,18061.024985,-72012.976812
511.092793,740.205942,10807.006753,-81052.903688
511.095348,1332.370696,6513.812290,-74770.920605
511.097903,-2368.659014,6661.853478,-76609.549800
511.100458,7550.100608,-740.205942,-76915.987999
511.103013,-2072.576638,5921.647536,-76303.111601
511.105568,4589.276840,5181.441594,-76303.111601
511.108124,7550.100608,8142.265362,-72012.976812
511.110679,-9178.553681,-6217.729913,-80593.246390
511.113234,5477.523971,-8438.347739,-76609.549800
511.115789,7550.100608,-14804.118840,-77682.083497
511.118344,-6513.812290,-3701.029710,-77988.521696
511.120899,10510.924376,-10066.800811,-77988.521696
511.123455,-1332.370696,2664.741391,-72625.853210
511.126010,3849.070898,4441.235652,-75230.577904
511.128565,5329.482782,296.082377,-76149.892501
511.131120,-3701.029710,-3404.947333,-79214.274493
511.133675,592.164754,-11843.295072,-79980.369991
511.136230,6217.729913,-7105.977043,-76456.330700
511.138786,3701.029710,1480.411884,-73085.510509
511.141341,-148.041188,-4737.318029,-78754.617194
511.143896,3701.029710,10955.047942,-69867.909418
511.146451,148.041188,-3256.906145,-78141.740796
511.149006,2220.617826,-15396.283594,-83351.190182
511.151562,-740.205942,-13915.871710,-83044.751983
511.154117,4293.194464,-15692.365970,-78294.959896
511.156672,1480.411884,1036.288319,-72166.195912
511.159227,-5329.482782,-2368.659014,-74464.482406
511.161782,8586.388927,7994.224174,-70327.566716
511.164337,1036.288319,-4293.194464,-77069.207099
511.166893,1924.535449,-4589.276840,-77528.864398
511.169448,-740.205942,-7994.224174,-75996.673402
511.172003,148.041188,6217.729913,-74311.263306
511.174558,5773.606348,14656.077652,-70480.785816
511.177113,6661.853478,15544.324782,-75843.454302
511.179668,-3701.029710,10807.006753,-75843.454302
511.182224,5625.565159,12583.501014,-73391.948708
511.184779,-2072.576638,4885.359217,-75690.235202
511.187334,4441.235652,-592.164754,-79367.493593
511.189889,1924.535449,4145.153275,-73698.386908
511.192444,-1184.329507,2220.617826,-81206.122788
511.195002,6809.894666,14952.160028,-71246.881314
511.197560,-2960.823768,-2812.782580,-79061.055394
511.200118,148.041188,11103.089130,-73085.510509
511.202677,7846.182985,-3997.112087,-75537.016103
511.205235,-3849.070898,4737.318029,-77069.207099
511.207793,2960.823768,4145.153275,-76762.768900
511.210351,1924.535449,7402.059420,-80593.246390
511.212909,-1924.535449,13767.830521,-75383.797003
511.215467,3552.988522,12583.501014,-75077.358804
511.218025,-1628.453072,9474.636058,-76303.111601
511.220583,740.205942,9770.718434,-75537.016103
511.223141,5329.482782,1332.370696,-77835.302597
511.225699,592.164754,-1480.411884,-82125.437386
511.228257,2516.700203,2664.741391,-76762.768900
511.230815,4441.235652,6957.935855,-73698.386908
511.233373,-6513.812290,-1332.370696,-75690.235202
511.235931,-296.082377,-10214.842000,-78601.398095
511.238489,4441.235652,-6513.812290,-74770.920605
511.241048,4885.359217,-10955.047942,-75383.797003
511.243606,5181.441594,-3997.112087,-77835.302597
511.246164,3849.070898,1480.411884,-76609.549800
511.248722,-6217.729913,2960.823768,-74770.920605
511.251280,-3108.864956,1036.288319,-74924.139704
511.253838,-1628.453072,-3849.070898,-80286.808190
511.256396,5181.441594,-4441.235652,-73698.386908
511.258954,740.205942,-10658.965565,-78601.398095
511.261512,296.082377,-2516.700203,-80593.246390
511.264070,5773.606348,2516.700203,-77988.521696
511.266628,-888.247130,-296.082377,-73698.386908
511.269186,148.041188,-6957.935855,-75690.235202
511.271744,3552.988522,-6365.771101,-75537.016103
511.274302,-2368.659014,-13175.665768,-76303.111601
511.276860,5181.441594,-4589.276840,-74004.825107
511.279419,1776.494261,-1924.535449,-75996.673402
511.281977,4737.318029,-6069.688724,-78141.740796
511.284535,-2220.617826,5181.441594,-73391.948708
511.287093,148.041188,148.041188,-74924.139704
511.289651,-4145.153275,-3997.112087,-76609.549800
511.292209,4145.153275,-4145.153275,-77222.426198
511.294767,4145.153275,4441.235652,-76149.892501
511.297328,-1036.288319,10807.006753,-75230.577904
511.299888,3256.906145,13175.665768,-76609.549800
511.302449,1776.494261,15100.201217,-74770.920605
511.305009,-4145.153275,1924.535449,-79367.493593
511.307570,4293.194464,7402.059420,-71246.881314
511.310131,888.247130,1628.453072,-79061.055394
511.312691,2516.700203,5181.441594,-74617.701505
511.315252,1924.535449,7994.224174,-77988.521696
511.317812,888.247130,-4737.318029,-82278.656485
511.320373,-4589.276840,11695.253884,-72932.291410
511.322933,-888.247130,4441.235652,-73391.948708
511.325494,3404.947333,-9326.594869,-80286.808190
511.328055,3997.112087,17912.983796,-70174.347617
511.330615,296.082377,4589.276840,-77375.645298
511.333176,9918.759623,16284.530724,-74770.920605
511.335736,3701.029710,18653.189738,-74770.920605
511.338297,-3108.864956,0.000000,-81052.903688
511.340858,-2960.823768,16432.571912,-72319.415011
511.343418,2516.700203,-5773.606348,-81512.560987
511.345979,6069.688724,11251.130318,-70940.443115
511.348539,5625.565159,-1480.411884,-79520.712692
511.351100,-1776.494261,5477.523971,-75537.016103
511.353661,444.123565,-8586.388927,-78601.398095
511.356221,7698.141797,-1924.535449,-73238.729609
511.358782,6365.771101,-8290.306550,-73238.729609
511.361342,740.205942,-5773.606348,-78448.178995
511.363903,6957.935855,-3108.864956,-74464.482406
511.366464,3849.070898,296.082377,-76149.892501
511.369024,-3404.947333,2664.741391,-77528.864398
511.371585,5625.565159,-4885.359217,-81052.903688
511.374145,-740.205942,5773.606348,-68029.280222
511.376706,740.205942,-6661.853478,-79827.150892
511.379267,6365.771101,1924.535449,-76609.549800
511.381827,6069.688724,-4737.318029,-78448.178995
511.384388,4293.194464,5625.565159,-74924.139704
511.386948,-6809.894666,-2516.700203,-77835.302597
511.389509,6957.935855,-13767.830521,-81206.122788
511.392069,-10807.006753,-1628.453072,-70787.224015
511.394630,4589.276840,-10510.924376,-79367.493593
511.397191,4441.235652,-1776.494261,-78141.740796
511.399745,-5329.482782,-10807.006753,-79061.055394
511.402307,6661.853478,-148.041188,-75230.577904
511.404868,-1628.453072,-1184.329507,-77375.645298
511.407430,740.205942,1036.288319,-77222.426198
511.409992,3552.988522,-3404.947333,-76762.768900
511.412553,-2072.576638,1628.453072,-76762.768900
511.415115,5329.482782,6513.812290,-75077.358804
511.417677,-296.082377,9770.718434,-77222.426198
511.420238,592.164754,10807.006753,-76456.330700
511.422800,5477.523971,17764.942608,-74770.920605
511.425362,-1776.494261,4885.359217,-75537.016103
511.427923,-4737.318029,3701.029710,-78141.740796
511.430485,7254.018232,7550.100608,-71706.538613
511.433047,-740.205942,1924.535449,-78601.398095
511.435608,2812.782580,7402.059420,-75230.577904
511.438170,1924.535449,10807.006753,-75690.235202
511.440732,148.041188,2516.700203,-71859.757712
511.443293,-2960.823768,-3997.112087,-78448.178995
511.445855,-1924.535449,-3108.864956,-81052.903688
511.448416,2960.823768,6661.853478,-78754.617194
511.450978,2516.700203,8586.388927,-77375.645298
511.453540,6217.729913,19985.560434,-70787.224015
511.456101,1480.411884,13767.830521,-77988.521696
511.458663,-2072.576638,11843.295072,-75230.577904
511.461225,-1480.411884,7698.141797,-76303.111601
511.463786,592.164754,1184.329507,-78448.178995
511.466348,6957.935855,296.082377,-78448.178995
511.468910,-2072.576638,3552.988522,-74617.701505
511.471471,888.247130,148.041188,-76149.892501
511.474033,296.082377,-5477.523971,-75996.673402
511.476595,1924.535449,-12139.377449,-79367.493593
511.479156,1776.494261,-7698.141797,-73238.729609
511.481718,3108.864956,-7254.018232,-76149.892501
511.484280,1036.288319,-2072.576638,-77988.521696
511.486841,9030.512492,1628.453072,-73851.606007
511.489403,1036.288319,-888.247130,-78448.178995
511.491965,5329.482782,1184.329507,-78601.398095
511.494526,3404.947333,-7994.224174,-78907.836294
511.497088,-296.082377,-6217.729913,-77682.083497
511.499650,3552.988522,3108.864956,-69867.909418
511.502213,-1332.370696,-3404.947333,-78754.617194
511.504776,-592.164754,7105.977043,-75996.673402
511.507339,7698.141797,-13175.665768,-79367.493593
511.509902,-1184.329507,-6217.729913,-75996.673402
511.512465,5329.482782,-12287.418637,-80286.808190
511.515028,-3404.947333,-7846.182985,-76303.111601
511.517591,1924.535449,888.247130,-73391.948708
511.520154,8734.430116,-7402.059420,-76609.549800
511.522717,-148.041188,1924.535449,-75690.235202
511.525280,9622.677246,3404.947333,-75690.235202
511.527843,-9622.677246,-2072.576638,-76915.987999
511.530406,5181.441594,0.000000,-77835.302597
511.532969,296.082377,3256.906145,-76609.549800
511.535532,-3701.029710,10658.965565,-73545.167808
511.538095,9770.718434,14952.160028,-74158.044206
511.540658,-5773.606348,14656.077652,-77988.521696
511.543221,1184.329507,5329.482782,-79520.712692
511.545784,2072.576638,3701.029710,-75230.577904
511.548347,-1628.453072,2516.700203,-74158.044206
511.550910,3552.988522,3404.947333,-77222.426198
511.553473,-1628.453072,3552.988522,-78141.740796
511.556036,1776.494261,592.164754,-77528.864398
511.558599,3849.070898,16432.571912,-70787.224015
511.561162,5921.647536,7402.059420,-75230.577904
511.563725,7846.182985,4885.359217,-74770.920605
511.566288,-6365.771101,1924.535449,-77375.645298
511.568851,1184.329507,14211.954086,-73085.510509
511.571414,2220.617826,5625.565159,-80440.027290
511.573977,2516.700203,19541.436869,-70787.224015
511.576540,3997.112087,10510.924376,-75230.577904
511.579103,-3849.070898,9770.718434,-77988.521696
511.581666,888.247130,1480.411884,-76456.330700
511.584229,4737.318029,-2664.741391,-81052.903688
511.586792,-1184.329507,2960.823768,-71706.538613
511.589355,2960.823768,740.205942,-76762.768900
511.591918,-296.082377,-3552.988522,-73851.606007
511.594481,-1480.411884,-6069.688724,-76149.892501
511.597044,2664.741391,-8734.430116,-79061.055394
511.599607,3404.947333,-11843.295072,-80286.808190
511.602170,0.000000,-3256.906145,-75077.358804
511.604734,3552.988522,1184.329507,-75537.016103
511.607298,2220.617826,3849.070898,-76303.111601
511.609862,-2960.823768,-2072.576638,-80440.027290
511.612426,9030.512492,592.164754,-74924.139704
511.614990,-148.041188,-12139.377449,-76762.768900
511.617555,2072.576638,-14508.036463,-82585.094684
511.620119,10658.965565,15396.283594,-70940.443115
511.622683,-3108.864956,-4885.359217,-78601.398095
511.625247,-3108.864956,-1480.411884,-74617.701505
511.627811,3256.906145,-14359.995275,-78754.617194
511.630375,-888.247130,-9622.677246,-76762.768900
511.632939,6217.729913,1924.535449,-71553.319513
511.635503,-148.041188,-10658.965565,-80286.808190
511.638068,8438.347739,5329.482782,-75996.673402
511.640632,-3108.864956,-11399.171507,-80593.246390
511.643196,-4589.276840,8882.471304,-70327.566716
511.645760,5033.400406,-10214.842000,-78907.836294
511.648324,-7994.224174,5773.606348,-77682.083497
511.650888,11399.171507,8734.430116,-73391.948708
511.653452,-2516.700203,13767.830521,-77222.426198
511.656016,-5625.565159,14952.160028,-73391.948708
511.658581,3404.947333,10955.047942,-76456.330700
511.661145,-7402.059420,5921.647536,-75996.673402
511.663709,2960.823768,2516.700203,-77835.302597
511.666273,2812.782580,2812.782580,-73698.386908
511.668837,3256.906145,3404.947333,-77375.645298
511.671401,2960.823768,6957.935855,-72166.195912
511.673965,3701.029710,9030.512492,-78907.836294
511.676529,3256.906145,6217.729913,-73238.729609
511.679094,-888.247130,-3404.947333,-75537.016103
511.681658,6661.853478,12139.377449,-69561.471218
511.684222,-592.164754,2072.576638,-82738.313784
511.686786,3552.988522,8438.347739,-78754.617194
511.689350,740.205942,18357.107362,-72012.976812
511.691914,-3256.906145,11399.171507,-77988.521696
511.694478,4293.194464,11103.089130,-78601.398095
511.697042,-148.041188,-1628.453072,-79061.055394
511.699607,2960.823768,4885.359217,-74770.920605
511.702171,2072.576638,6957.935855,-75383.797003
511.704735,2960.823768,2812.782580,-76303.111601
511.707299,6957.935855,-9770.718434,-77682.083497
511.709863,-1924.535449,-7846.182985,-74770.920605
511.712427,5773.606348,-6513.812290,-75077.358804
511.714991,4145.153275,-4145.153275,-75077.358804
511.717555,148.041188,-3256.906145,-74311.263306
511.720119,0.000000,-148.041188,-77988.521696
511.722683,-1036.288319,1036.288319,-76303.111601
511.725247,-2368.659014,-7254.018232,-83504.409282
511.727811,3849.070898,-5625.565159,-78754.617194
511.730375,1628.453072,-6661.853478,-74158.044206
511.732939,4441.235652,3108.864956,-71706.538613
511.735503,1776.494261,-1332.370696,-78294.959896
511.738067,-3108.864956,-2664.741391,-77988.521696
511.740631,-444.123565,-1036.288319,-72625.853210
511.743195,6069.688724,-6365.771101,-76303.111601
511.745759,1628.453072,-9622.677246,-82125.437386
511.748323,1332.370696,-5773.606348,-77682.083497
511.750886,-1184.329507,-5773.606348,-75077.358804
511.753450,5625.565159,1036.288319,-75996.673402
511.756014,-2072.576638,2072.576638,-75996.673402
511.758578,6661.853478,-2664.741391,-76456.330700
511.761142,3849.070898,-2960.823768,-75230.577904
511.763706,-3997.112087,-296.082377,-80746.465489
511.766270,6365.771101,12139.377449,-73085.510509
511.768834,1480.411884,10066.800811,-75077.358804
511.771398,1924.535449,12879.583391,-75537.016103
511.773962,6069.688724,11695.253884,-76149.892501
511.776526,1628.453072,6069.688724,-78601.398095
511.779090,3849.070898,2220.617826,-74770.920605
511.781654,7846.182985,2072.576638,-77528.864398
511.784218,3552.988522,-1184.329507,-79520.712692
511.786782,5181.441594,16876.695478,-68948.594820
511.789346,3997.112087,10214.842000,-74158.044206
511.791910,-592.164754,-3404.947333,-81818.999186
511.794474,5181.441594,6957.935855,-76609.549800
511.797038,6513.812290,-5033.400406,-80899.684589
511.799602,-6217.729913,12435.459826,-74464.482406
511.802166,888.247130,11251.130318,-76762.768900
511.804730,-3404.947333,15988.448347,-76456.330700
511.807294,-888.247130,14359.995275,-73698.386908
511.809858,4293.194464,3256.906145,-79827.150892
511.812423,-6957.935855,9918.759623,-72625.853210
511.814987,12731.542202,-2960.823768,-79214.274493
511.817551,0.000000,9178.553681,-70480.785816
511.820116,-6365.771101,-8734.430116,-79214.274493
511.822680,4885.359217,-2220.617826,-73545.167808
511.825244,-740.205942,-11399.171507,-78294.959896
511.827808,-888.247130,-5033.400406,-74311.263306
511.830373,6513.812290,-8734.430116,-77988.521696
511.832937,-1628.453072,-1776.494261,-77069.207099
511.835501,4293.194464,4145.153275,-72319.415011
511.838066,296.082377,148.041188,-79827.150892
511.840630,-2664.741391,-1480.411884,-74158.044206
511.843194,6809.894666,-9622.677246,-79061.055394
511.845758,-4145.153275,-1924.535449,-74770.920605
511.848323,7402.059420,-3108.864956,-78448.178995
511.850887,-148.041188,6217.729913,-74770.920605
511.853451,5181.441594,-13175.665768,-81052.903688
511.856016,592.164754,444.123565,-70327.566716
511.858580,-1776.494261,-13027.624579,-80899.684589
511.861144,2368.659014,-3404.947333,-76609.549800
511.863709,-3997.112087,-7994.224174,-78448.178995
511.866273,6809.894666,-2072.576638,-74004.825107
511.868837,-1184.329507,-1480.411884,-75537.016103
511.871401,3256.906145,-4145.153275,-80440.027290
511.873966,2664.741391,-4737.318029,-73545.167808
511.876530,-444.123565,1628.453072,-78601.398095
511.879094,4885.359217,8438.347739,-77835.302597
511.881659,1924.535449,8734.430116,-77222.426198
511.884223,6661.853478,16136.489536,-70480.785816
511.886787,1480.411884,14211.954086,-76762.768900
511.889351,-740.205942,5625.565159,-78448.178995
511.891916,3108.864956,4885.359217,-77069.207099
511.894480,4737.318029,-2220.617826,-76149.892501
511.897044,2368.659014,3256.906145,-74311.263306
511.899609,6365.771101,592.164754,-75077.358804
511.902173,-3108.864956,13175.665768,-73698.386908
511.904737,5181.441594,4737.318029,-73698.386908
511.907301,-5181.441594,-5329.482782,-79827.150892
511.909866,2072.576638,7846.182985,-74311.263306
511.912393,6957.935855,6513.812290,-74924.139704
511.914921,2812.782580,15840.407159,-75077.358804
511.917448,5477.523971,11251.130318,-76456.330700
511.919976,0.000000,13175.665768,-75996.673402
511.922503,3404.947333,10658.965565,-72779.072310
511.925031,-1036.288319,5625.565159,-76915.987999
511.927558,2516.700203,148.041188,-78754.617194
511.930086,7105.977043,1036.288319,-75690.235202
511.932613,-3256.906145,-2960.823768,-76303.111601
511.935140,6809.894666,-11547.212695,-76303.111601
511.937668,-3108.864956,-5477.523971,-75383.797003
511.940195,-740.205942,-10510.924376,-77988.521696
511.942723,2516.700203,-2368.659014,-73085.510509
511.945250,1184.329507,-5477.523971,-78754.617194
511.947778,6217.729913,444.123565,-77682.083497
511.950305,-592.164754,3701.029710,-74924.139704
511.952833,-9178.553681,-6513.812290,-81818.999186
511.955360,6069.688724,5181.441594,-75230.577904
511.957888,-2368.659014,-17764.942608,-82278.656485
511.960415,-6069.688724,-2072.576638,-73698.386908
511.962943,10807.006753,3701.029710,-71859.757712
511.965470,1776.494261,0.000000,-74924.139704
511.967998,1924.535449,-5625.565159,-75537.016103
511.970525,2664.741391,-13767.830521,-82125.437386
511.973053,-740.205942,-10362.883188,-81818.999186
511.975580,-148.041188,-5329.482782,-74617.701505
511.978107,0.000000,888.247130,-73698.386908
511.980635,1776.494261,5625.565159,-71093.662214
511.983162,5181.441594,-1628.453072,-78754.617194
511.985690,1776.494261,-7846.182985,-80593.246390
511.988217,-5921.647536,296.082377,-78294.959896
511.990745,6365.771101,11695.253884,-74004.825107
511.993272,1776.494261,13323.706956,-75383.797003
511.995800,1036.288319,10066.800811,-76762.768900
511.998327,4293.194464,15100.201217,-74311.263306
512.000855,-148.041188,3997.112087,-76915.987999
512.003382,3552.988522,3108.864956,-78907.836294
512.005910,5181.441594,3108.864956,-75537.016103
512.008437,-2072.576638,3552.988522,-75077.358804
512.010965,7550.100608,17172.777854,-69867.909418
512.013500,-888.247130,-1036.288319,-79061.055394
512.016035,-1184.329507,-5477.523971,-79980.369991
512.018570,4145.153275,17468.860231,-68029.280222
512.021105,-1332.370696,-6957.935855,-83504.409282
512.023641,3701.029710,13175.665768,-76762.768900
512.026176,1332.370696,17912.983796,-69714.690318
512.028711,-2220.617826,14211.954086,-73851.606007
512.031246,3256.906145,16876.695478,-73391.948708
512.033781,888.247130,-2072.576638,-82431.875585
512.036316,740.205942,13619.789333,-68795.375720
512.038852,2368.659014,1184.329507,-79520.712692
512.041387,5477.523971,3108.864956,-76149.892501
512.043922,-1628.453072,-15840.407159,-82278.656485
512.046457,1036.288319,1776.494261,-76915.987999
512.048992,8290.306550,-7550.100608,-74924.139704
512.051528,-2072.576638,-2812.782580,-77835.302597
512.054063,7105.977043,-5921.647536,-75077.358804
512.056598,2812.782580,-2812.782580,-76303.111601
512.059133,4441.235652,-1184.329507,-78601.398095
512.061668,4885.359217,740.205942,-75383.797003
512.064203,-6217.729913,1628.453072,-73698.386908
512.066739,6365.771101,-12435.459826,-80899.684589
512.069274,-7254.018232,2664.741391,-72625.853210
512.071809,0.000000,-3997.112087,-79673.931792
512.074344,9622.677246,0.000000,-74004.825107
512.076879,-4145.153275,-2960.823768,-76456.330700
512.079415,5625.565159,-13915.871710,-81665.780087
512.081950,-10362.883188,-6809.894666,-76762.768900
512.084485,592.164754,-8290.306550,-76762.768900
512.087020,3849.070898,1924.535449,-71553.319513
512.089555,1184.329507,-8290.306550,-79367.493593
512.092090,7254.018232,7846.182985,-70940.443115
512.094626,-7105.977043,-8142.265362,-78907.836294
512.097161,-1332.370696,4589.276840,-76762.768900
512.099696,3108.864956,4589.276840,-78754.617194
512.102231,-4145.153275,11547.212695,-74004.825107
512.104766,8438.347739,16136.489536,-71246.881314
512.107302,4441.235652,13175.665768,-78907.836294
512.109837,3701.029710,10955.047942,-75077.358804
512.112372,6661.853478,6217.729913,-74617.701505
512.114914,-1332.370696,740.205942,-76915.987999
512.117456,2664.741391,296.082377,-77988.521696
512.119998,-2368.659014,-5921.647536,-79980.369991
512.122540,-1480.411884,13027.624579,-72012.976812
512.125082,6069.688724,7698.141797,-75690.235202
512.127624,-4885.359217,-10066.800811,-83504.409282
512.130166,6217.729913,15692.365970,-70327.566716
512.132708,3997.112087,3997.112087,-79673.931792
512.135251,-7254.018232,18061.024985,-77988.521696
512.137793,7550.100608,12583.501014,-76456.330700
512.140335,1924.535449,7698.141797,-80440.027290
512.142877,-4145.153275,7105.977043,-78754.617194
512.145419,7254.018232,-1480.411884,-76762.768900
512.147961,-5921.647536,7254.018232,-75077.358804
512.150503,4589.276840,-5773.606348,-80746.465489
512.153045,-3404.947333,-7698.141797,-74464.482406
512.155587,-148.041188,-6809.894666,-75383.797003
512.158129,5773.606348,-6217.729913,-76762.768900
512.160671,-2072.576638,-2516.700203,-76609.549800
512.163213,8734.430116,-2220.617826,-75996.673402
512.165755,296.082377,-2960.823768,-76303.111601
512.168297,-1480.411884,-444.123565,-78294.959896
512.170840,296.082377,-4589.276840,-79214.274493
512.173382,-8882.471304,-2812.782580,-72012.976812
512.175924,8142.265362,-1036.288319,-74464.482406
512.178466,1480.411884,0.000000,-74464.482406
512.181008,4885.359217,8882.471304,-73851.606007
512.183550,3256.906145,-7105.977043,-79214.274493
512.186092,-2072.576638,-9326.594869,-74464.482406
512.188634,1184.329507,-13323.706956,-81206.122788
512.191176,1924.535449,-10955.047942,-77682.083497
512.193718,3701.029710,1332.370696,-70787.224015
512.196260,6809.894666,296.082377,-74617.701505
512.198802,1480.411884,1628.453072,-76762.768900
512.201344,148.041188,-6217.729913,-76149.892501
512.203886,1480.411884,-3701.029710,-74770.920605
512.206429,-2368.659014,-888.247130,-78907.836294
512.208971,1924.535449,11399.171507,-76303.111601
512.211513,7550.100608,13471.748144,-74004.825107
512.214055,3997.112087,14211.954086,-75383.797003
512.216602,0.000000,11103.089130,-79214.274493
512.219149,-2072.576638,8882.471304,-75230.577904
512.221696,444.123565,3552.988522,-75996.673402
512.224243,-296.082377,1332.370696,-77528.864398
512.226790,1924.535449,740.205942,-77375.645298
512.229337,2960.823768,3404.947333,-73545.167808
512.231884,5773.606348,26647.413912,-67722.842023
512.234431,6957.935855,-6365.771101,-79827.150892
512.236978,-6809.894666,-296.082377,-80133.589091
512.239525,1924.535449,10362.883188,-70940.443115
512.242072,5033.400406,9326.594869,-76149.892501
512.244619,3701.029710,21317.931130,-72472.634111
512.247166,2368.659014,6513.812290,-78141.740796
512.249713,2516.700203,21169.889941,-69714.690318
512.252260,740.205942,-2072.576638,-82738.313784
512.254807,1776.494261,9178.553681,-75537.016103
512.257354,-740.205942,-3701.029710,-78448.178995
512.259901,-2812.782580,-4885.359217,-75843.454302
512.262448,4145.153275,-7994.224174,-73545.167808
512.264995,-3701.029710,-13175.665768,-80286.808190
512.267542,2516.700203,-1480.411884,-72472.634111
512.270089,7698.141797,-7105.977043,-77375.645298
512.272636,-2960.823768,-740.205942,-75537.016103
512.275183,5329.482782,-2812.782580,-77375.645298
512.277730,-5625.565159,3404.947333,-73851.606007
512.280277,2368.659014,1776.494261,-72625.853210
512.282824,1776.494261,-10510.924376,-78907.836294
512.285371,-3108.864956,-1776.494261,-75996.673402
512.287918,7698.141797,7846.182985,-69561.471218
512.290465,-1776.494261,3552.988522,-76149.892501
512.293012,4589.276840,-11547.212695,-80440.027290
512.295559,-1628.453072,-13027.624579,-77375.645298
512.298106,3256.906145,-10807.006753,-75383.797003
512.300653,3849.070898,-7846.182985,-76915.987999
512.303200,5033.400406,148.041188,-75690.235202
512.305747,1480.411884,-1776.494261,-77069.207099
512.308294,2664.741391,6069.688724,-74004.825107
512.310841,-3552.988522,-12435.459826,-81052.903688
512.313388,3256.906145,3701.029710,-76149.892501
512.315935,-592.164754,4441.235652,-77222.426198
512.318487,-148.041188,16580.613101,-76303.111601
512.321038,6217.729913,10510.924376,-77222.426198
512.323589,3108.864956,8882.471304,-81052.903688
512.326140,444.123565,13027.624579,-71706.538613
512.328692,2960.823768,3701.029710,-78754.617194
512.331243,1480.411884,888.247130,-78907.836294
512.333794,3404.947333,3552.988522,-75996.673402
512.336345,0.000000,8438.347739,-72166.195912
512.338897,5329.482782,2072.576638,-80746.465489
512.341448,1332.370696,13175.665768,-73238.729609
512.343999,3552.988522,2960.823768,-74158.044206
512.346550,8290.306550,2664.741391,-76915.987999
512.349102,-6809.894666,19097.313304,-73085.510509
512.351653,8290.306550,8882.471304,-80593.246390
512.354204,1036.288319,17172.777854,-72472.634111
512.356755,5477.523971,7698.141797,-76609.549800
512.359307,-3108.864956,12879.583391,-74464.482406
512.361858,2220.617826,-1036.288319,-79367.493593
512.364409,4441.235652,2368.659014,-73698.386908
512.366960,-1776.494261,-4885.359217,-77528.864398
512.369512,5625.565159,-12731.542202,-76762.768900
512.372063,-2960.823768,-6069.688724,-73545.167808
512.374614,4293.194464,-7698.141797,-76762.768900
512.377165,-148.041188,-1184.329507,-74464.482406
512.379717,-1332.370696,-7846.182985,-81359.341888
512.382268,5773.606348,4589.276840,-74311.263306
512.384819,1924.535449,1036.288319,-80286.808190
512.387370,888.247130,-592.164754,-78907.836294
512.389922,-148.041188,148.041188,-75537.016103
512.392473,3701.029710,296.082377,-76303.111601
512.395024,1184.329507,4737.318029,-73085.510509
512.397575,-4885.359217,-3849.070898,-79673.931792
512.400133,9178.553681,-5921.647536,-74464.482406
512.402688,-1480.411884,-12139.377449,-76762.768900
512.405243,6217.729913,-3997.112087,-74770.920605
512.407798,3256.906145,-10658.965565,-80286.808190
512.410353,-7402.059420,-3256.906145,-77069.207099
512.412908,7846.182985,-1332.370696,-77528.864398
512.415463,4441.235652,-2516.700203,-75843.454302
512.418017,-5477.523971,-5773.606348,-77835.302597
512.420572,2072.576638,6069.688724,-76456.330700
512.423127,1776.494261,9918.759623,-75843.454302
512.425682,592.164754,10807.006753,-79061.055394
512.428237,1776.494261,8142.265362,-77222.426198
512.430792,592.164754,15544.324782,-72779.072310
512.433347,-592.164754,10362.883188,-77682.083497
512.435902,592.164754,7698.141797,-78448.178995
512.438457,1628.453072,-296.082377,-82431.875585
512.441012,3552.988522,740.205942,-76303.111601
512.443567,-6661.853478,-2812.782580,-77682.083497
512.446122,3552.988522,15544.324782,-74311.263306
512.448676,2220.617826,-2220.617826,-79367.493593
512.451231,-740.205942,3256.906145,-74004.825107
512.453786,8734.430116,18061.024985,-70021.128517
512.456341,5921.647536,7105.977043,-81359.341888
512.458896,9474.636058,22206.178260,-69714.690318
512.461451,2516.700203,6365.771101,-77069.207099
512.464006,0.000000,10955.047942,-74311.263306
512.466561,0.000000,-1036.288319,-78907.836294
512.469116,-888.247130,7254.018232,-76609.549800
512.471671,4737.318029,-2072.576638,-75537.016103
512.474226,-1332.370696,-12139.377449,-78754.617194
512.476781,3108.864956,-8290.306550,-72932.291410
512.479335,6365.771101,-13767.830521,-79827.150892
512.481890,-4885.359217,1628.453072,-74464.482406
512.484445,7402.059420,-7550.100608,-78141.740796
512.487000,-1924.535449,2812.782580,-75537.016103
512.489555,1184.329507,-1184.329507,-76915.987999
512.492110,1924.535449,296.082377,-75996.673402
512.494665,148.041188,-4293.194464,-78141.740796
512.497220,3849.070898,-1924.535449,-76149.892501
512.499775,1036.288319,-1924.535449,-75383.797003
512.502332,444.123565,740.205942,-78448.178995
512.504889,-2664.741391,-3997.112087,-78141.740796
512.507447,-592.164754,-15100.201217,-81512.560987
512.510004,1480.411884,-15840.407159,-78294.959896
512.512561,-2072.576638,-6513.812290,-73545.167808
512.515118,9770.718434,-2664.741391,-75230.577904
512.517676,-1480.411884,-2516.700203,-75843.454302
512.520233,6365.771101,3849.070898,-75996.673402
512.522790,-740.205942,-6513.812290,-77069.207099
512.525347,592.164754,3701.029710,-74311.263306
512.527905,4441.235652,5921.647536,-76149.892501
512.530462,1776.494261,9326.594869,-79061.055394
512.533019,3997.112087,13323.706956,-77682.083497
512.535577,1036.288319,7846.182985,-77222.426198
512.538134,-296.082377,14804.118840,-71553.319513
512.540691,3997.112087,6365.771101,-77222.426198
512.543248,2368.659014,1480.411884,-76762.768900
512.545806,-1036.288319,8734.430116,-70940.443115
512.548363,5477.523971,6957.935855,-77528.864398
512.550920,3552.988522,-4293.194464,-83044.751983
512.553477,592.164754,1776.494261,-75690.235202
512.556035,-1776.494261,8290.306550,-73698.386908
512.558592,4293.194464,2220.617826,-79520.712692
512.561149,2516.700203,17764.942608,-72932.291410
512.563707,3997.112087,10362.883188,-79827.150892
512.566264,592.164754,19837.519246,-71859.757712
512.568821,-444.123565,4737.318029,-77988.521696
512.571378,3256.906145,5477.523971,-78754.617194
512.573936,-1776.494261,3108.864956,-76303.111601
512.576493,9918.759623,-5033.400406,-80899.684589
512.579050,7254.018232,-5921.647536,-72166.195912
512.581607,296.082377,-13175.665768,-78448.178995
512.584165,4293.194464,-8438.347739,-76762.768900
512.586722,-1480.411884,-9770.718434,-77835.302597
512.589279,2664.741391,0.000000,-70327.566716
512.591837,-740.205942,0.000000,-75996.673402
512.594394,-3552.988522,-4885.359217,-80899.684589
512.596951,4885.359217,8882.471304,-71093.662214
512.599508,296.082377,444.123565,-74924.139704
512.602066,-740.205942,-2220.617826,-75077.358804
512.604625,1184.329507,-15988.448347,-82738.313784
512.607184,-740.205942,2664.741391,-75996.673402
512.609744,2368.659014,-2220.617826,-76456.330700
512.612303,-3404.947333,-11695.253884,-77375.645298
512.614862,-1776.494261,-6661.853478,-76149.892501
512.617422,2220.617826,-17024.736666,-80440.027290
512.619981,148.041188,-1480.411884,-77069.207099
512.622540,3108.864956,-1480.411884,-76303.111601
512.625100,4737.318029,2664.741391,-74311.263306
512.627659,-444.123565,-1628.453072,-72012.976812
512.630218,-3701.029710,6513.812290,-77835.302597
512.632778,-148.041188,6809.894666,-76915.987999
512.635337,4145.153275,14063.912898,-75230.577904
512.637896,3849.070898,10955.047942,-75690.235202
512.640456,3849.070898,13471.748144,-79827.150892
512.643015,-4145.153275,6957.935855,-76609.549800
512.645574,-592.164754,4589.276840,-76762.768900
512.648133,2220.617826,8142.265362,-69101.813920
512.650693,296.082377,2220.617826,-76456.330700
512.653252,12731.542202,6809.894666,-75077.358804
512.655811,1332.370696,1924.535449,-80133.589091
512.658371,-5921.647536,6217.729913,-78448.178995
512.660930,2368.659014,1036.288319,-78601.398095
512.663489,-3256.906145,11251.130318,-76915.987999
512.666049,6809.894666,15100.201217,-74924.139704
512.668608,4293.194464,22354.219448,-73851.606007
512.671167,2072.576638,7105.977043,-79061.055394
512.673727,-592.164754,12287.418637,-73545.167808
512.676286,-444.123565,-1480.411884,-77988.521696
512.678845,444.123565,-296.082377,-81818.999186
512.681405,2368.659014,-6217.729913,-76609.549800
512.683964,1628.453072,-5181.441594,-71246.881314
512.686523,296.082377,-10658.965565,-76149.892501
512.689083,-740.205942,-14508.036463,-79367.493593
512.691642,4589.276840,-6513.812290,-79367.493593
512.694201,1332.370696,-3404.947333,-73391.948708
512.696761,-3552.988522,888.247130,-76149.892501
512.699320,1184.329507,4293.194464,-76762.768900
512.701879,-2664.741391,-3849.070898,-79673.931792
512.704439,0.000000,11991.336260,-71400.100414
512.707000,-148.041188,-25463.084405,-83197.971083
512.709561,1628.453072,4737.318029,-71093.662214
512.712122,7105.977043,2516.700203,-73698.386908
512.714684,-1332.370696,-14359.995275,-75843.454302
512.717245,740.205942,0.000000,-73238.729609
512.719806,444.123565,-25167.002028,-85343.038477
512.722367,2516.700203,5033.400406,-68335.718422
512.724928,-1924.535449,-10658.965565,-80440.027290
512.727490,2664.741391,10510.924376,-74464.482406
512.730051,5921.647536,-4293.194464,-75230.577904
512.732612,-2812.782580,5033.400406,-75537.016103
512.735173,-888.247130,1628.453072,-80133.589091
512.737735,148.041188,1628.453072,-81512.560987
512.740296,2516.700203,17764.942608,-71400.100414
512.742857,7994.224174,9918.759623,-77682.083497
512.745418,-740.205942,17172.777854,-76303.111601
512.747979,-1332.370696,4145.153275,-79980.369991
512.750541,148.041188,6069.688724,-75843.454302
512.753102,-2072.576638,-3701.029710,-81512.560987
512.755663,5625.565159,12287.418637,-74004.825107
512.758224,1036.288319,740.205942,-74004.825107
512.760786,5625.565159,6513.812290,-72779.072310
512.763347,444.123565,9326.594869,-73698.386908
512.765908,148.041188,-1332.370696,-85802.695776
512.768469,1628.453072,16580.613101,-67722.842023
512.771030,-296.082377,14804.118840,-77682.083497
512.773592,5181.441594,17172.777854,-75690.235202
512.776153,2664.741391,6365.771101,-79214.274493
512.778714,-148.041188,7550.100608,-71246.881314
512.781275,444.123565,888.247130,-78601.398095
512.783837,1924.535449,148.041188,-75537.016103
512.786398,3108.864956,-11991.336260,-78448.178995
512.788959,592.164754,-12435.459826,-75230.577904
512.791520,1184.329507,-8734.430116,-73851.606007
512.794082,1036.288319,-3108.864956,-75383.797003
512.796643,148.041188,-6365.771101,-75996.673402
512.799204,888.247130,7254.018232,-71859.757712
512.801765,-2812.782580,-3404.947333,-80286.808190
512.804326,1036.288319,-1036.288319,-78907.836294
512.806888,2516.700203,-7698.141797,-73698.386908
512.809450,-888.247130,-2072.576638,-76456.330700
512.812011,3256.906145,148.041188,-76303.111601
512.814573,1480.411884,-3552.988522,-77528.864398
512.817135,-592.164754,2220.617826,-66343.870127
512.819697,6513.812290,-13915.871710,-80286.808190
512.822259,-2664.741391,-11251.130318,-79214.274493
512.824821,5329.482782,-6957.935855,-76609.549800
512.827383,1628.453072,0.000000,-74770.920605
512.829944,2664.741391,6513.812290,-70940.443115
512.832506,2960.823768,-4293.194464,-79061.055394
512.835068,-2960.823768,2812.782580,-75996.673402
512.837630,3108.864956,6069.688724,-77988.521696
512.840192,-2812.782580,9178.553681,-75996.673402
512.842754,8290.306550,11547.212695,-77988.521696
512.845316,2812.782580,11399.171507,-73851.606007
512.847878,-2368.659014,12435.459826,-78601.398095
512.850439,3701.029710,8586.388927,-77222.426198
512.853001,-2664.741391,-3256.906145,-80746.465489
512.855563,2960.823768,5773.606348,-73698.386908
512.858125,5477.523971,5033.400406,-74464.482406
512.860687,-2516.700203,-1480.411884,-79214.274493
512.863249,2812.782580,888.247130,-76762.768900
512.865811,444.123565,6513.812290,-74004.825107
512.868373,-3108.864956,5921.647536,-79980.369991
512.870934,6217.729913,12731.542202,-77528.864398
512.873496,2368.659014,16284.530724,-72472.634111
512.876058,6069.688724,15248.242405,-74158.044206
512.878620,-444.123565,10658.965565,-74617.701505
512.881182,4885.359217,888.247130,-79520.712692
512.883744,296.082377,1036.288319,-76456.330700
512.886306,-1036.288319,-2960.823768,-76149.892501
512.888868,5921.647536,-7994.224174,-75077.358804
512.891429,-296.082377,-17912.983796,-79520.712692
512.893991,3404.947333,-4589.276840,-72779.072310
512.896553,-592.164754,-9474.636058,-77528.864398
512.899115,-3701.029710,-888.247130,-76149.892501
512.901677,4145.153275,1628.453072,-77988.521696
512.904239,-740.205942,-888.247130,-79061.055394
512.906801,-444.123565,-3552.988522,-77528.864398
512.909363,2220.617826,-3256.906145,-76915.987999
512.911892,4589.276840,444.123565,-70787.224015
512.914421,7254.018232,-1332.370696,-74464.482406
512.916950,-1924.535449,592.164754,-76149.892501
512.919480,444.123565,-9918.759623,-75383.797003
512.922009,740.205942,-11547.212695,-77222.426198
512.924538,1036.288319,-14211.954086,-77222.426198
512.927068,7698.141797,-3108.864956,-75383.797003
512.929597,-6513.812290,-888.247130,-76303.111601
512.932126,7994.224174,4441.235652,-74004.825107
512.934656,-444.123565,296.082377,-73238.729609
512.937185,2220.617826,6809.894666,-77528.864398
512.939714,5625.565159,7846.182985,-74617.701505
512.942243,-6217.729913,9622.677246,-77988.521696
512.944773,4145.153275,12583.501014,-74004.825107
512.947302,2368.659014,11399.171507,-78754.617194
512.949831,740.205942,7402.059420,-77222.426198
512.952361,2960.823768,7698.141797,-74158.044206
512.954890,-1036.288319,4589.276840,-74924.139704
512.957419,2812.782580,11547.212695,-69867.909418
512.959949,2072.576638,-1628.453072,-78448.178995
512.962478,2072.576638,-4293.194464,-82891.532884
512.965007,1628.453072,10214.842000,-72932.291410
512.967536,4885.359217,-3552.988522,-83657.628382
512.970066,9918.759623,8438.347739,-83197.971083
512.972595,4293.194464,21021.848753,-71093.662214
512.975124,1036.288319,10807.006753,-77069.207099
512.977654,3997.112087,17764.942608,-70634.004916
512.980183,3256.906145,-6957.935855,-83197.971083
512.982712,-3256.906145,13175.665768,-70634.004916
512.985242,0.000000,-7698.141797,-81665.780087
512.987771,3256.906145,-5033.400406,-73545.167808
512.990300,1480.411884,-18061.024985,-77375.645298
512.992829,2812.782580,-12435.459826,-77682.083497
512.995359,1332.370696,-3701.029710,-73545.167808
512.997888,-296.082377,-7254.018232,-78294.959896
513.000417,-592.164754,3849.070898,-73545.167808
513.002947,740.205942,296.082377,-80133.589091
513.005476,-3256.906145,1036.288319,-77682.083497
513.008005,2368.659014,-5033.400406,-78907.836294
513.010535,148.041188,-2516.700203,-76762.768900
513.013072,-6809.894666,5625.565159,-72932.291410
513.015609,4885.359217,-6217.729913,-80899.684589
513.018146,1184.329507,-9474.636058,-77528.864398
513.020684,4293.194464,-5329.482782,-72625.853210
513.023221,-1332.370696,-11103.089130,-76456.330700
513.025758,1184.329507,-8882.471304,-80593.246390
513.028296,-2516.700203,-5773.606348,-76609.549800
513.030833,3701.029710,4737.318029,-73698.386908
513.033370,3997.112087,-1628.453072,-76915.987999
513.035907,-3256.906145,6661.853478,-76609.549800
513.038445,4441.235652,11991.336260,-75996.673402
513.040982,4441.235652,9770.718434,-75537.016103
513.043519,1184.329507,9030.512492,-78754.617194
513.046057,8586.388927,11399.171507,-74464.482406
513.048594,-296.082377,9030.512492,-76609.549800
513.051131,592.164754,8586.388927,-76303.111601
513.053668,5033.400406,2664.741391,-76149.892501
513.056206,0.000000,2960.823768,-74311.263306
513.058743,2812.782580,-1776.494261,-77682.083497
513.061280,3997.112087,9030.512492,-74924.139704
513.063818,-592.164754,-2220.617826,-79827.150892
513.066355,-5477.523971,6513.812290,-76303.111601
513.068892,11103.089130,12583.501014,-73391.948708
513.071429,4589.276840,18209.066173,-74924.139704
513.073967,740.205942,15988.448347,-75230.577904
513.076504,6365.771101,11843.295072,-75230.577904
513.079041,-1480.411884,6365.771101,-77222.426198
513.081579,1036.288319,-444.123565,-79827.150892
513.084116,3701.029710,-1332.370696,-76915.987999
513.086653,-1332.370696,-11251.130318,-75537.016103
513.089190,5329.482782,-9326.594869,-73698.386908
513.091728,4885.359217,-10658.965565,-75537.016103
513.094265,-3701.029710,-9178.553681,-76609.549800
513.096802,4145.153275,-2812.782580,-72319.415011
513.099340,3552.988522,-5033.400406,-79673.931792
513.101877,2516.700203,6809.894666,-72779.072310
513.104414,3256.906145,-1332.370696,-80899.684589
513.106951,-1776.494261,-3108.864956,-75690.235202
513.109489,592.164754,-2516.700203,-75996.673402
513.112026,2516.700203,-148.041188,-74004.825107
513.114570,4589.276840,-888.247130,-74464.482406
513.117114,444.123565,-3997.112087,-74311.263306
513.119658,-296.082377,-19837.519246,-82278.656485
513.122202,592.164754,-14063.912898,-75996.673402
513.124746,-740.205942,-4293.194464,-75230.577904
513.127290,2960.823768,3849.070898,-74311.263306
513.129834,2220.617826,1924.535449,-76456.330700
513.132378,-740.205942,-2812.782580,-76915.987999
513.134922,296.082377,10066.800811,-74004.825107
513.137467,1924.535449,8586.388927,-76915.987999
513.140011,3701.029710,14508.036463,-75383.797003
513.142555,3256.906145,6809.894666,-77988.521696
513.145099,5477.523971,14211.954086,-76915.987999
513.147643,-1332.370696,3552.988522,-80593.246390
513.150187,-3849.070898,10658.965565,-76762.768900
513.152731,2960.823768,9030.512492,-71246.881314
513.155275,3552.988522,4293.194464,-75537.016103
513.157819,-1332.370696,-1628.453072,-81818.999186
513.160363,6217.729913,-5773.606348,-79061.055394
513.162907,2220.617826,11103.089130,-71246.881314
513.165451,-2960.823768,7402.059420,-76456.330700
513.167995,5625.565159,15988.448347,-74924.139704
513.170539,740.205942,21317.931130,-72779.072310
513.173083,6217.729913,13619.789333,-79367.493593
513.175627,-888.247130,12731.542202,-73391.948708
513.178171,2072.576638,2516.700203,-78907.836294
513.180716,-1924.535449,3404.947333,-74617.701505
513.183260,-5329.482782,-5329.482782,-76456.330700
513.185804,9030.512492,-12287.418637,-76609.549800
513.188348,-1184.329507,-10955.047942,-76609.549800
513.190892,4293.194464,-11251.130318,-77069.207099
513.193436,-1776.494261,-8586.388927,-77835.302597
513.195980,-1628.453072,-592.164754,-76303.111601
513.198524,444.123565,-2516.700203,-77988.521696
513.201068,1480.411884,11251.130318,-70787.224015
513.203612,1036.288319,6957.935855,-75843.454302
513.206156,1480.411884,-12287.418637,-83504.409282
513.208700,1924.535449,9030.512492,-69255.033019
513.211244,-740.205942,-9918.759623,-77682.083497
513.213788,740.205942,6069.688724,-73851.606007
513.216337,5181.441594,-15100.201217,-78141.740796
513.218886,-3997.112087,-18061.024985,-79827.150892
513.221435,3849.070898,-888.247130,-73085.510509
513.223984,-1628.453072,-13027.624579,-86109.133975
513.226533,2812.782580,5181.441594,-73391.948708
513.229082,-296.082377,-3701.029710,-77835.302597
513.231631,444.123565,10066.800811,-76303.111601
513.234180,4441.235652,6957.935855,-77528.864398
513.236729,-7994.224174,11399.171507,-75996.673402
513.239278,8586.388927,10362.883188,-77069.207099
513.241827,2516.700203,10658.965565,-77069.207099
513.244376,-4885.359217,7254.018232,-80133.589091
513.246925,5181.441594,8734.430116,-75843.454302
513.249474,1036.288319,9326.594869,-72625.853210
513.252023,444.123565,11695.253884,-75077.358804
513.254572,11103.089130,-5921.647536,-79673.931792
513.257120,-3849.070898,-6365.771101,-77682.083497
513.259669,6957.935855,13175.665768,-72625.853210
513.262218,3997.112087,-1036.288319,-80286.808190
513.264767,1628.453072,15248.242405,-79673.931792
513.267316,7846.182985,21762.054695,-70634.004916
513.269865,1036.288319,14508.036463,-74924.139704
513.272414,-1480.411884,14359.995275,-75690.235202
513.274963,5329.482782,-148.041188,-79061.055394
513.277512,-2220.617826,10510.924376,-71553.319513
513.280061,-740.205942,-9326.594869,-81972.218286
513.282610,5181.441594,-5033.400406,-73698.386908
513.285159,148.041188,-18505.148550,-78601.398095
513.287708,740.205942,-9326.594869,-76149.892501
513.290257,1924.535449,-4441.235652,-74464.482406
513.292806,-1628.453072,-6661.853478,-78294.959896
513.295355,1924.535449,3256.906145,-74311.263306
513.297904,1480.411884,-2664.741391,-78448.178995
513.300453,-592.164754,-3404.947333,-76149.892501
513.303002,6513.812290,6365.771101,-72779.072310
513.305551,-5921.647536,-1628.453072,-77682.083497
513.308100,4737.318029,1776.494261,-74004.825107
513.310649,5181.441594,-8734.430116,-80440.027290
513.313197,-6809.894666,-13619.789333,-76762.768900
513.315746,2368.659014,-16580.613101,-75230.577904
513.318300,-148.041188,-11991.336260,-77222.426198
513.320854,2368.659014,-7698.141797,-76456.330700
513.323407,4885.359217,-296.082377,-75230.577904
513.325961,-3849.070898,-148.041188,-78448.178995
513.328514,6513.812290,6217.729913,-77682.083497
513.331068,-8882.471304,10658.965565,-74158.044206
513.333621,-4589.276840,13619.789333,-77835.302597
513.336175,7402.059420,10807.006753,-74617.701505
513.338728,-3108.864956,7698.141797,-80286.808190
513.341282,6513.812290,11103.089130,-75996.673402
513.343835,2220.617826,9770.718434,-74311.263306
513.346389,-2368.659014,3256.906145,-80593.246390
513.348943,2220.617826,740.205942,-76609.549800
513.351496,592.164754,2072.576638,-75230.577904
513.354050,2516.700203,6661.853478,-73698.386908
513.356603,148.041188,-3108.864956,-80593.246390
513.359157,3404.947333,8290.306550,-76149.892501
513.361710,3552.988522,11991.336260,-73391.948708
513.364264,2812.782580,21169.889941,-76915.987999
513.366817,7254.018232,16876.695478,-76915.987999
513.369371,-4737.318029,10955.047942,-76609.549800
513.371924,4737.318029,7698.141797,-74770.920605
513.374478,-5033.400406,-3997.112087,-81206.122788
513.377032,296.082377,-296.082377,-74158.044206
513.379585,11695.253884,-11547.212695,-74770.920605
513.382139,-3552.988522,-11399.171507,-75537.016103
513.384692,1332.370696,0.000000,-69101.813920
513.387246,7105.977043,-6957.935855,-74464.482406
513.389799,-4293.194464,0.000000,-75996.673402
513.392353,4145.153275,296.082377,-78294.959896
513.394906,2072.576638,1480.411884,-76609.549800
513.397460,1924.535449,-5773.606348,-82738.313784
513.400013,3256.906145,5477.523971,-74004.825107
513.402567,-888.247130,592.164754,-72012.976812
513.405121,-2516.700203,0.000000,-76303.111601
513.407674,5625.565159,-4589.276840,-77835.302597
513.410228,-444.123565,-18653.189738,-78907.836294
513.412781,3256.906145,-13767.830521,-73391.948708
513.415335,7105.977043,-15248.242405,-80133.589091
513.417888,-592.164754,-1776.494261,-75690.235202
513.420443,740.205942,2516.700203,-74924.139704
513.423000,4589.276840,3108.864956,-77528.864398
513.425558,-5477.523971,6217.729913,-75690.235202
513.428115,-2220.617826,9030.512492,-78601.398095
513.430673,2072.576638,14952.160028,-74770.920605
513.433230,-1776.494261,6661.853478,-79214.274493
513.435787,5773.606348,13915.871710,-77069.207099
513.438345,2960.823768,-148.041188,-81972.218286
513.440902,-4293.194464,13767.830521,-73085.510509
513.443460,12435.459826,5921.647536,-73085.510509
513.446017,-6069.688724,6365.771101,-73085.510509
513.448575,3404.947333,-888.247130,-79367.493593
513.451132,5477.523971,1184.329507,-76762.768900
513.453689,888.247130,5625.565159,-78141.740796
513.456247,2664.741391,7550.100608,-79061.055394
513.458804,-1628.453072,14804.118840,-76456.330700
513.461362,444.123565,21317.931130,-72779.072310
513.463919,3701.029710,10510.924376,-78907.836294
513.466476,7105.977043,8882.471304,-75230.577904
513.469034,1628.453072,3849.070898,-74617.701505
513.471591,2812.782580,-1036.288319,-77375.645298
513.474149,1776.494261,-13027.624579,-77222.426198
513.476706,1036.288319,-17616.901420,-79673.931792
513.479264,5773.606348,-8438.347739,-70940.443115
513.481821,-2368.659014,-4885.359217,-76609.549800
513.484378,-1480.411884,-5033.400406,-76609.549800
513.486936,4441.235652,2960.823768,-75230.577904
513.489493,-4737.318029,-3552.988522,-79214.274493
513.492051,7105.977043,-6217.729913,-81665.780087
513.494608,592.164754,1332.370696,-75537.016103
513.497166,-1480.411884,6957.935855,-72625.853210
513.499723,3108.864956,-2664.741391,-75077.358804
513.502283,2220.617826,5329.482782,-72012.976812
513.504843,6513.812290,-12731.542202,-76303.111601
513.507403,6957.935855,-14508.036463,-73391.948708
513.509963,2220.617826,-13767.830521,-78294.959896
513.512523,592.164754,-10214.842000,-76915.987999
513.515082,5329.482782,3108.864956,-73238.729609
513.517642,-2812.782580,-3552.988522,-81206.122788
513.520202,1628.453072,13915.871710,-73851.606007
513.522762,296.082377,5477.523971,-79367.493593
513.525322,2664.741391,19985.560434,-72625.853210
513.527882,0.000000,8734.430116,-77835.302597
513.530442,1776.494261,10066.800811,-79214.274493
513.533002,2368.659014,1924.535449,-81665.780087
513.535562,-1924.535449,13323.706956,-70634.004916
513.538122,-740.205942,148.041188,-76762.768900
513.540682,3849.070898,10362.883188,-70480.785816
513.543241,5477.523971,15544.324782,-69408.252119
513.545801,4145.153275,-1776.494261,-78448.178995
513.548361,888.247130,888.247130,-80440.027290
513.550921,-1480.411884,6217.729913,-78907.836294
513.553481,-5477.523971,11695.253884,-73545.167808
513.556041,7254.018232,23094.425390,-74464.482406
513.558601,-296.082377,9178.553681,-78601.398095
513.561161,1184.329507,15840.407159,-72625.853210
513.563721,3256.906145,3552.988522,-75843.454302
513.566281,5329.482782,-4737.318029,-77835.302597
513.568841,-296.082377,-14656.077652,-77682.083497
513.571400,2664.741391,-18209.066173,-76915.987999
513.573960,4441.235652,-8734.430116,-70787.224015
513.576520,-148.041188,-7402.059420,-75077.358804
513.579080,3404.947333,-3552.988522,-74158.044206
513.581640,1036.288319,888.247130,-75843.454302
513.584200,-3256.906145,1924.535449,-79520.712692
513.586760,-1480.411884,-2812.782580,-77528.864398
513.589320,3849.070898,3997.112087,-76149.892501
513.591880,1628.453072,-5329.482782,-80133.589091
513.594440,0.000000,5477.523971,-70787.224015
513.597000,1776.494261,-6957.935855,-77528.864398
513.599559,5033.400406,-1924.535449,-71400.100414
513.602119,148.041188,-18653.189738,-76456.330700
513.604681,-740.205942,-10510.924376,-76456.330700
513.607243,2516.700203,-13767.830521,-77375.645298
513.609806,444.123565,-9326.594869,-81972.218286
513.612368,-444.123565,4145.153275,-68029.280222
513.614930,2516.700203,8438.347739,-78448.178995
513.617492,-1332.370696,15840.407159,-75843.454302
513.620054,2516.700203,13915.871710,-75537.016103
513.622616,-148.041188,13175.665768,-76609.549800
513.625178,3701.029710,3849.070898,-81206.122788
513.627740,-1480.411884,5773.606348,-79214.274493
513.630302,-296.082377,7550.100608,-73085.510509
513.632864,148.041188,8734.430116,-75690.235202
513.635426,3256.906145,10066.800811,-72625.853210
513.637988,3108.864956,-4737.318029,-77528.864398
513.640550,1036.288319,4145.153275,-72319.415011
513.643112,-2220.617826,3701.029710,-77988.521696
513.645674,6069.688724,5921.647536,-79827.150892
513.648236,-2072.576638,17320.819043,-75843.454302
513.650798,1184.329507,15988.448347,-77682.083497
513.653360,1628.453072,19541.436869,-72625.853210
513.655922,5773.606348,5625.565159,-75996.673402
513.658484,888.247130,12287.418637,-70327.566716
513.661047,4885.359217,-9918.759623,-78907.836294
513.663609,-3256.906145,-10807.006753,-77375.645298
513.666171,-296.082377,-20133.601622,-80899.684589
513.668733,4293.194464,-11251.130318,-74311.263306
513.671295,0.000000,-4145.153275,-74004.825107
513.673857,3849.070898,-6217.729913,-75537.016103
513.676419,0.000000,7698.141797,-70787.224015
513.678981,-148.041188,-2368.659014,-83351.190182
513.681543,1332.370696,7402.059420,-73698.386908
513.684105,6217.729913,-2072.576638,-79520.712692
513.686667,-740.205942,-13323.706956,-81206.122788
513.689229,0.000000,9326.594869,-70480.785816
513.691791,0.000000,-8438.347739,-79980.369991
513.694353,2516.700203,-5181.441594,-70634.004916
513.696915,-1628.453072,-17912.983796,-76149.892501
513.699477,3404.947333,-12583.501014,-77222.426198
513.702039,1924.535449,-12287.418637,-77988.521696
513.704601,4441.235652,-7550.100608,-79827.150892
513.707165,-592.164754,4589.276840,-70787.224015
513.709730,-740.205942,12879.583391,-78294.959896
513.712294,592.164754,17320.819043,-74770.920605
513.714858,3997.112087,17024.736666,-75996.673402
513.717422,1924.535449,8734.430116,-76762.768900
513.719986,3404.947333,7698.141797,-79520.712692
513.722550,0.000000,3997.112087,-79980.369991
513.725114,-592.164754,7254.018232,-75230.577904
513.727678,4589.276840,5477.523971,-73851.606007
513.730242,5921.647536,7254.018232,-73085.510509
513.732806,3552.988522,5477.523971,-74004.825107
513.735370,-2812.782580,-148.041188,-76915.987999
513.737934,-1776.494261,3997.112087,-79827.150892
513.740498,3256.906145,11103.089130,-76456.330700
513.743063,296.082377,20577.725188,-76915.987999
513.745627,7105.977043,18209.066173,-78754.617194
513.748191,3552.988522,17616.901420,-73085.510509
513.750755,-2664.741391,5625.565159,-78601.398095
513.753319,3997.112087,3404.947333,-72319.415011
513.755883,-888.247130,-11695.253884,-78141.740796
513.758447,7105.977043,-12287.418637,-76609.549800
513.761011,2812.782580,-21169.889941,-79980.369991
513.763575,1776.494261,-2072.576638,-71706.538613
513.766139,1036.288319,-7550.100608,-77069.207099
513.768703,-4589.276840,0.000000,-74617.701505
513.771267,9326.594869,-444.123565,-76915.987999
513.773831,1036.288319,-3552.988522,-76149.892501
513.776396,-444.123565,740.205942,-79520.712692
513.778960,9030.512492,-3404.947333,-77528.864398
513.781524,-3701.029710,-2072.576638,-75690.235202
513.784088,5477.523971,4589.276840,-73238.729609
513.786652,-1332.370696,-11547.212695,-78754.617194
513.789216,-3108.864956,-10066.800811,-72319.415011
513.791780,1924.535449,-21169.889941,-78754.617194
513.794344,-3108.864956,-9770.718434,-79214.274493
513.796908,11843.295072,-5625.565159,-79827.150892
513.799472,2960.823768,-2072.576638,-75077.358804
513.802036,-5921.647536,15692.365970,-74617.701505
513.804600,4293.194464,17468.860231,-75383.797003
513.807164,-3552.988522,19245.354492,-73851.606007
513.809729,3552.988522,4145.153275,-82738.313784
513.812294,3997.112087,8290.306550,-74924.139704
513.814859,-3404.947333,2812.782580,-80440.027290
513.817424,7254.018232,6957.935855,-73545.167808
513.819988,2812.782580,7254.018232,-75230.577904
513.822553,148.041188,1184.329507,-74464.482406
513.825118,-2516.700203,1184.329507,-74924.139704
513.827683,3849.070898,6365.771101,-73698.386908
513.830247,7402.059420,-1184.329507,-78907.836294
513.832812,-1184.329507,22502.260637,-72625.853210
513.835377,5033.400406,6809.894666,-83657.628382
513.837942,-3849.070898,22354.219448,-73085.510509
513.840507,-2516.700203,12139.377449,-74311.263306
513.843071,6809.894666,12435.459826,-71859.757712
513.845636,296.082377,1036.288319,-76456.330700
513.848201,-296.082377,-14211.954086,-83197.971083
513.850766,8586.388927,-11695.253884,-74158.044206
513.853331,0.000000,-24426.796086,-79214.274493
513.855895,3404.947333,-4589.276840,-71706.538613
513.858460,-148.041188,-11251.130318,-77222.426198
513.861025,-2812.782580,6957.935855,-69561.471218
513.863590,8734.430116,-3701.029710,-79367.493593
513.866154,1036.288319,444.123565,-78448.178995
513.868719,2368.659014,-2812.782580,-78754.617194
513.871284,2220.617826,-3552.988522,-80286.808190
513.873849,-3552.988522,5773.606348,-74617.701505
513.876414,2960.823768,-8734.430116,-81512.560987
513.878978,888.247130,-592.164754,-70480.785816
513.881543,-148.041188,-16432.571912,-76149.892501
513.884108,1480.411884,-11991.336260,-75077.358804
513.886673,9030.512492,-18949.272115,-78294.959896
513.889237,6957.935855,-9030.512492,-79520.712692
513.891802,-4145.153275,1628.453072,-70787.224015
513.894367,-1628.453072,15692.365970,-74924.139704
513.896932,2664.741391,16284.530724,-75077.358804
513.899497,-1776.494261,20873.807564,-75077.358804
513.902061,5477.523971,11547.212695,-77222.426198
513.904626,2072.576638,6809.894666,-78601.398095
513.907191,3701.029710,2368.659014,-78907.836294
513.909756,3701.029710,3849.070898,-76456.330700
513.912321,0.000000,5181.441594,-74464.482406
513.914887,592.164754,5625.565159,-74004.825107
513.917452,2516.700203,4737.318029,-73545.167808
513.920018,-1036.288319,-3404.947333,-77682.083497
513.922583,2368.659014,4737.318029,-75690.235202
513.925149,3404.947333,9918.759623,-76149.892501
513.927714,5625.565159,23242.466579,-74311.263306
513.930280,6513.812290,12139.377449,-84270.504780
513.932845,-2072.576638,16580.613101,-76609.549800
513.935410,296.082377,6957.935855,-76456.330700
513.937976,2072.576638,5921.647536,-74004.825107
513.940541,-2220.617826,-14656.077652,-78601.398095
513.943107,15988.448347,-14656.077652,-76915.987999
513.945672,-3701.029710,-22058.137072,-77682.083497
513.948238,4589.276840,-8734.430116,-75537.016103
513.950803,740.205942,-7402.059420,-77222.426198
513.953369,-4737.318029,2220.617826,-74311.263306
513.955934,8734.430116,4293.194464,-76303.111601
513.958500,4885.359217,1628.453072,-77375.645298
513.961065,-2812.782580,-6661.853478,-82431.875585
513.963631,3701.029710,-3552.988522,-78294.959896
513.966196,3108.864956,2664.741391,-74158.044206
513.968762,5773.606348,-6069.688724,-77988.521696
513.971327,-1184.329507,-3404.947333,-73698.386908
513.973893,-2516.700203,-14804.118840,-73391.948708
513.976458,3997.112087,-15692.365970,-75690.235202
513.979024,-6661.853478,-12731.542202,-78754.617194
513.981589,4145.153275,-8290.306550,-80133.589091
513.984154,5033.400406,-444.123565,-75077.358804
513.986720,-5181.441594,16728.654289,-76609.549800
513.989285,2516.700203,21021.848753,-74617.701505
513.991851,-5033.400406,17616.901420,-77069.207099
513.994416,3849.070898,11547.212695,-75690.235202
513.996982,3849.070898,5477.523971,-78601.398095
513.999547,1480.411884,3552.988522,-78907.836294
514.002113,7698.141797,4885.359217,-78601.398095
514.004678,148.041188,1184.329507,-77988.521696
514.007244,-1480.411884,8734.430116,-75690.235202
514.009809,3701.029710,9178.553681,-72472.634111
514.012375,2220.617826,-740.205942,-75230.577904
514.014941,1184.329507,7254.018232,-76609.549800
514.017507,-4441.235652,9326.594869,-78448.178995
514.020073,3849.070898,21021.848753,-75537.016103
514.022640,8438.347739,17172.777854,-77375.645298
514.025206,6365.771101,15544.324782,-77835.302597
514.027772,-1776.494261,10658.965565,-75077.358804
514.030338,-444.123565,-3108.864956,-76762.768900
514.032905,-1480.411884,-16136.489536,-75383.797003
514.035471,6217.729913,-22206.178260,-77069.207099
514.038037,7105.977043,-17320.819043,-77988.521696
514.040603,3552.988522,-6957.935855,-74770.920605
514.043170,6365.771101,-2664.741391,-76303.111601
514.045736,296.082377,4885.359217,-72932.291410
514.048302,1776.494261,3997.112087,-77528.864398
514.050868,3108.864956,5477.523971,-74770.920605
514.053435,2960.823768,-1924.535449,-81206.122788
514.056001,3701.029710,-5921.647536,-80440.027290
514.058567,4293.194464,1332.370696,-75383.797003
514.061133,-296.082377,-2368.659014,-74924.139704
514.063700,4441.235652,-10955.047942,-74464.482406
514.066266,1184.329507,-17172.777854,-76149.892501
514.068832,-6365.771101,-12731.542202,-76915.987999
514.071398,7698.141797,-13175.665768,-77375.645298
514.073965,-2664.741391,-4885.359217,-80286.808190
514.076531,6069.688724,7846.182985,-76915.987999
514.079097,1184.329507,19541.436869,-75383.797003
514.081663,-4737.318029,20725.766376,-74770.920605
514.084230,6365.771101,18357.107362,-76149.892501
514.086796,-4885.359217,5477.523971,-78907.836294
514.089362,740.205942,4885.359217,-78907.836294
