#time,accel_x,accel_y,accel_z
7186.629405,-3923.091493,-8734.430116,536.266849
7186.629721,-3330.926739,-9104.533087,536.266849
7186.630037,-3404.947333,-9178.553681,306.438199
7186.630354,-2664.741391,-9178.553681,383.047749
7186.630670,-3404.947333,-8586.388927,383.047749
7186.630986,-3849.070898,-8660.409521,0.000000
7186.631302,-3478.967927,-8956.491898,536.266849
7186.631619,-3552.988522,-8882.471304,76.609550
7186.631935,-3627.009116,-8882.471304,0.000000
7186.632251,-4071.132681,-8882.471304,0.000000
7186.632568,-4367.215058,-8956.491898,-229.828649
7186.632884,-3627.009116,-9178.553681,-1072.533697
7186.633200,-3849.070898,-8956.491898,459.657299
7186.633516,-3627.009116,-8956.491898,229.828649
7186.633833,-3701.029710,-9178.553681,536.266849
7186.634149,-3108.864956,-9326.594869,536.266849
7186.634465,-2960.823768,-9030.512492,842.705048
7186.634781,-3182.885551,-8438.347739,1072.533697
7186.635098,-2738.761985,-8808.450710,1072.533697
7186.635414,-3701.029710,-8142.265362,76.609550
7186.635730,-3552.988522,-9030.512492,383.047749
7186.636047,-4293.194464,-8808.450710,0.000000
7186.636363,-4219.173869,-8956.491898,0.000000
7186.636679,-4367.215058,-8808.450710,-306.438199
7186.636995,-4071.132681,-8882.471304,-383.047749
7186.637312,-4145.153275,-9104.533087,306.438199
7186.637628,-3478.967927,-8438.347739,459.657299
7186.637944,-3108.864956,-8882.471304,306.438199
7186.638261,-2812.782580,-8734.430116,842.705048
7186.638577,-2960.823768,-8808.450710,689.485948
7186.638893,-3256.906145,-9030.512492,842.705048
7186.639209,-3404.947333,-8882.471304,766.095498
7186.639526,-3478.967927,-8808.450710,229.828649
7186.639842,-3552.988522,-8586.388927,0.000000
7186.640158,-3330.926739,-8586.388927,842.705048
7186.640474,-4071.132681,-8586.388927,-459.657299
7186.640791,-4145.153275,-8734.430116,0.000000
7186.641107,-3997.112087,-8882.471304,-153.219100
7186.641423,-4219.173869,-8882.471304,0.000000
7186.641740,-3849.070898,-8808.450710,153.219100
7186.642056,-3330.926739,-9252.574275,383.047749
7186.642372,-3404.947333,-8660.409521,536.266849
7186.642688,-3182.885551,-8290.306550,612.876398
7186.643005,-3108.864956,-8364.327145,1455.581446
7186.643321,-2886.803174,-9030.512492,536.266849
7186.643637,-3404.947333,-8586.388927,612.876398
7186.643954,-3775.050304,-8956.491898,0.000000
7186.644270,-3997.112087,-8512.368333,0.000000
7186.644586,-4293.194464,-8586.388927,-229.828649
7186.644902,-4071.132681,-9104.533087,-842.705048
7186.645219,-4367.215058,-8364.327145,-153.219100
7186.645535,-3627.009116,-9326.594869,0.000000
7186.645851,-3552.988522,-8660.409521,536.266849
7186.646167,-3552.988522,-8882.471304,919.314598
7186.646484,-3034.844362,-9030.512492,919.314598
7186.646800,-3034.844362,-8660.409521,1072.533697
7186.647116,-3256.906145,-8512.368333,689.485948
7186.647433,-2812.782580,-8660.409521,536.266849
7186.647749,-3627.009116,-8512.368333,459.657299
7186.648065,-3775.050304,-8956.491898,0.000000
7186.648381,-4293.194464,-8512.368333,-153.219100
7186.648698,-4441.235652,-8734.430116,-459.657299
7186.649014,-4367.215058,-8882.471304,-536.266849
7186.649330,-3923.091493,-8956.491898,-153.219100
7186.649647,-3701.029710,-8660.409521,0.000000
7186.649963,-3182.885551,-8808.450710,306.438199
7186.650279,-2664.741391,-8956.491898,766.095498
7186.650595,-2886.803174,-8808.450710,919.314598
7186.650912,-2812.782580,-8808.450710,919.314598
7186.651228,-3182.885551,-8956.491898,919.314598
7186.651544,-3627.009116,-8808.450710,459.657299
7186.651860,-3701.029710,-8882.471304,0.000000
7186.652177,-3849.070898,-9252.574275,0.000000
7186.652493,-4367.215058,-8586.388927,-306.438199
7186.652809,-4219.173869,-8956.491898,-229.828649
7186.653126,-4293.194464,-8660.409521,0.000000
7186.653442,-3701.029710,-8808.450710,0.000000
7186.653758,-3775.050304,-8956.491898,229.828649
7186.654074,-3552.988522,-8734.430116,536.266849
7186.654391,-3256.906145,-8734.430116,612.876398
7186.654707,-3404.947333,-8734.430116,842.705048
7186.655023,-2886.803174,-8512.368333,153.219100
7186.655340,-2146.597232,-9178.553681,-229.828649
7186.655656,-2294.638420,-8734.430116,229.828649
7186.655972,-2738.761985,-8364.327145,0.000000
7186.656288,-3997.112087,-8956.491898,459.657299
7186.656605,-3997.112087,-9400.615463,76.609550
7186.656921,-3849.070898,-9918.759623,-919.314598
7186.657237,-3330.926739,-9548.656652,-612.876398
7186.657553,-3330.926739,-9918.759623,383.047749
7186.657870,-2960.823768,-9548.656652,1991.848295
7186.658186,-1480.411884,-9622.677246,1762.019645
7186.658502,0.000000,-8956.491898,1762.019645
7186.658819,-962.267725,-8512.368333,1838.629195
7186.659135,-2664.741391,-7994.224174,1991.848295
7186.659451,-4367.215058,-7920.203579,842.705048
7186.659767,-4145.153275,-8808.450710,-1225.752797
7186.660084,-4145.153275,-8660.409521,-2451.505594
7186.660400,-4293.194464,-8956.491898,-2451.505594
7186.660716,-4071.132681,-8882.471304,-919.314598
7186.661033,-3923.091493,-8512.368333,536.266849
7186.661349,-3849.070898,-8660.409521,1072.533697
7186.661665,-3552.988522,-9400.615463,1532.190996
7186.661981,-1998.556043,-10066.800811,306.438199
7186.662298,-444.123565,-9992.780217,0.000000
7186.662614,-370.102971,-9030.512492,1685.410096
7186.662930,-2516.700203,-8586.388927,3983.696590
7186.663246,-3627.009116,-8808.450710,3370.820191
7186.663563,-2812.782580,-9326.594869,0.000000
7186.663879,-2590.720797,-9030.512492,-2451.505594
7186.664195,-4367.215058,-8512.368333,-2834.553343
7186.664512,-5477.523971,-7920.203579,-689.485948
7186.664828,-4441.235652,-8586.388927,-306.438199
7186.665144,-3108.864956,-8882.471304,-689.485948
7186.665460,-3404.947333,-8364.327145,-459.657299
7186.665777,-4293.194464,-8956.491898,995.924147
7186.666093,-3627.009116,-9252.574275,842.705048
7186.666409,-1998.556043,-8882.471304,612.876398
7186.666726,-1850.514855,-8734.430116,1072.533697
7186.667042,-3552.988522,-8660.409521,2068.457845
7186.667358,-3997.112087,-9622.677246,1532.190996
7186.667674,-2960.823768,-9104.533087,-459.657299
7186.667991,-2886.803174,-9104.533087,-1225.752797
7186.668307,-3775.050304,-9252.574275,-459.657299
7186.668623,-4811.338623,-7698.141797,842.705048
7186.668940,-4145.153275,-8068.244768,229.828649
7186.669256,-4441.235652,-8512.368333,-383.047749
7186.669572,-4441.235652,-9252.574275,-842.705048
7186.669888,-4367.215058,-8660.409521,-383.047749
7186.670205,-3256.906145,-8216.285956,-766.095498
7186.670521,-2368.659014,-8734.430116,689.485948
7186.670837,-2738.761985,-8290.306550,1915.238745
7186.671153,-2960.823768,-8364.327145,995.924147
7186.671470,-1998.556043,-9548.656652,1072.533697
7186.671786,-2146.597232,-9400.615463,229.828649
7186.672102,-2664.741391,-8734.430116,0.000000
7186.672419,-4293.194464,-9252.574275,153.219100
7186.672735,-4663.297435,-8734.430116,0.000000
7186.673051,-4145.153275,-9326.594869,-459.657299
7186.673367,-4293.194464,-9400.615463,-689.485948
7186.673684,-3701.029710,-9030.512492,0.000000
7186.674000,-3330.926739,-8364.327145,1991.848295
7186.674316,-3478.967927,-8068.244768,919.314598
7186.674633,-2516.700203,-9030.512492,689.485948
7186.674949,-2886.803174,-9400.615463,-153.219100
7186.675265,-1702.473667,-8364.327145,153.219100
7186.675581,-2368.659014,-8586.388927,383.047749
7186.675898,-3404.947333,-7846.182985,2145.067394
7186.676214,-3182.885551,-8216.285956,612.876398
7186.676530,-3108.864956,-8734.430116,-306.438199
7186.676846,-3330.926739,-9474.636058,-1149.143247
7186.677163,-3552.988522,-9252.574275,-1378.971896
7186.677479,-3478.967927,-9252.574275,-689.485948
7186.677795,-2442.679609,-9400.615463,459.657299
7186.678112,-2664.741391,-8882.471304,1072.533697
7186.678428,-2664.741391,-9474.636058,1378.971896
7186.678744,-1924.535449,-9548.656652,1608.800546
7186.679060,-1924.535449,-9844.739029,919.314598
7186.679377,-2220.617826,-9326.594869,306.438199
7186.679693,-2368.659014,-9178.553681,1225.752797
7186.680009,-3108.864956,-9104.533087,1455.581446
7186.680326,-2664.741391,-9104.533087,459.657299
7186.680642,-3552.988522,-8586.388927,383.047749
7186.680958,-3849.070898,-8660.409521,-229.828649
7186.681274,-4219.173869,-8068.244768,-536.266849
7186.681591,-4219.173869,-8290.306550,-689.485948
7186.681907,-4441.235652,-8216.285956,76.609550
7186.682223,-4071.132681,-8586.388927,0.000000
7186.682539,-3478.967927,-8290.306550,-153.219100
7186.682856,-3330.926739,-8956.491898,306.438199
7186.683172,-3256.906145,-8956.491898,536.266849
7186.683488,-2886.803174,-9474.636058,306.438199
7186.683805,-3034.844362,-9178.553681,612.876398
7186.684121,-3256.906145,-9474.636058,383.047749
7186.684437,-2960.823768,-9474.636058,306.438199
7186.684753,-3330.926739,-9474.636058,0.000000
7186.685070,-3552.988522,-9104.533087,153.219100
7186.685386,-3034.844362,-9030.512492,689.485948
7186.685702,-3627.009116,-8438.347739,-383.047749
7186.686019,-3330.926739,-9104.533087,689.485948
7186.686335,-3478.967927,-8660.409521,0.000000
7186.686651,-3330.926739,-8734.430116,229.828649
7186.686967,-3108.864956,-8364.327145,536.266849
7186.687284,-3404.947333,-8290.306550,612.876398
7186.687600,-3256.906145,-8216.285956,689.485948
7186.687916,-3552.988522,-8438.347739,383.047749
7186.688232,-3923.091493,-9178.553681,0.000000
7186.688549,-3849.070898,-9252.574275,229.828649
7186.688865,-4589.276840,-9326.594869,0.000000
7186.689181,-4737.318029,-9400.615463,306.438199
7186.689498,-5255.462188,-9252.574275,383.047749
7186.689814,-5255.462188,-9474.636058,459.657299
7186.690130,-4737.318029,-9474.636058,689.485948
7186.690446,-3552.988522,-8586.388927,612.876398
7186.690763,-4219.173869,-7698.141797,1455.581446
7186.691075,-4367.215058,-7994.224174,1915.238745
7186.691391,-4589.276840,-7476.080014,1915.238745
7186.691708,-4589.276840,-7550.100608,536.266849
7186.692024,-5107.421000,-7031.956449,-612.876398
7186.692340,-6291.750507,-6809.894666,-1762.019645
7186.692657,-6587.832884,-6883.915261,-1685.410096
7186.692973,-6069.688724,-7772.162391,-2145.067394
7186.693289,-5403.503377,-8068.244768,-1149.143247
7186.693606,-4811.338623,-8290.306550,-306.438199
7186.693922,-5033.400406,-9252.574275,383.047749
7186.694238,-3923.091493,-10066.800811,383.047749
7186.694555,-2516.700203,-10140.821405,766.095498
7186.694871,-1776.494261,-10214.842000,1149.143247
7186.695187,-1702.473667,-9400.615463,1532.190996
7186.695504,-2146.597232,-9474.636058,3064.381992
7186.695820,-2220.617826,-9326.594869,2298.286494
7186.696136,-2294.638420,-9030.512492,1225.752797
7186.696453,-2812.782580,-8512.368333,0.000000
7186.696769,-3997.112087,-8290.306550,-153.219100
7186.697085,-4737.318029,-7550.100608,-612.876398
7186.697402,-4885.359217,-7624.121203,-306.438199
7186.697718,-4515.256246,-7402.059420,-383.047749
7186.698035,-4589.276840,-7846.182985,-612.876398
7186.698351,-4367.215058,-8364.327145,0.000000
7186.698667,-4219.173869,-8956.491898,612.876398
7186.698984,-3775.050304,-8882.471304,1149.143247
7186.699300,-3182.885551,-9400.615463,1608.800546
7186.699616,-3256.906145,-9326.594869,1838.629195
7186.699933,-2664.741391,-9622.677246,1991.848295
7186.700249,-3627.009116,-8882.471304,995.924147
7186.700565,-3256.906145,-8734.430116,766.095498
7186.700882,-3627.009116,-9030.512492,-229.828649
7186.701198,-4367.215058,-8216.285956,-306.438199
7186.701514,-4367.215058,-8808.450710,-612.876398
7186.701831,-5033.400406,-8068.244768,-919.314598
7186.702147,-3701.029710,-7179.997637,-1302.362347
7186.702463,-4145.153275,-8438.347739,-689.485948
7186.702780,-3330.926739,-8364.327145,459.657299
7186.703096,-3627.009116,-8808.450710,1072.533697
7186.703412,-3404.947333,-9030.512492,919.314598
7186.703729,-2812.782580,-8956.491898,1302.362347
7186.704045,-3108.864956,-9400.615463,1532.190996
7186.704361,-3182.885551,-9474.636058,995.924147
7186.704678,-3478.967927,-9474.636058,919.314598
7186.704994,-4145.153275,-9252.574275,842.705048
7186.705310,-4293.194464,-9104.533087,0.000000
7186.705627,-4663.297435,-8586.388927,0.000000
7186.705943,-5329.482782,-8586.388927,-536.266849
7186.706259,-4737.318029,-8142.265362,-842.705048
7186.706576,-4589.276840,-8216.285956,-1072.533697
7186.706892,-4811.338623,-7476.080014,-229.828649
7186.707209,-4737.318029,-7179.997637,0.000000
7186.707525,-4737.318029,-8364.327145,-459.657299
7186.707841,-4515.256246,-8216.285956,153.219100
7186.708158,-4589.276840,-8364.327145,0.000000
7186.708474,-4071.132681,-9030.512492,766.095498
7186.708790,-3849.070898,-9104.533087,919.314598
7186.709107,-3923.091493,-8882.471304,1225.752797
7186.709423,-4885.359217,-7698.141797,1455.581446
7186.709739,-4589.276840,-9400.615463,1455.581446
7186.710056,-4071.132681,-9252.574275,-612.876398
7186.710372,-3775.050304,-8068.244768,-842.705048
7186.710688,-5033.400406,-8364.327145,76.609550
7186.711005,-5477.523971,-8290.306550,766.095498
7186.711321,-3849.070898,-8438.347739,-536.266849
7186.711637,-3034.844362,-8068.244768,-842.705048
7186.711954,-3923.091493,-7994.224174,-306.438199
7186.712270,-5403.503377,-8068.244768,1608.800546
7186.712586,-5033.400406,-8512.368333,919.314598
7186.712903,-2368.659014,-9622.677246,-383.047749
7186.713219,-1998.556043,-9178.553681,-536.266849
7186.713535,-3627.009116,-8734.430116,1685.410096
7186.713852,-5625.565159,-8586.388927,2987.772442
7186.714168,-4515.256246,-9178.553681,1072.533697
7186.714484,-3108.864956,-8956.491898,-306.438199
7186.714801,-3256.906145,-9474.636058,-995.924147
7186.715117,-3775.050304,-9104.533087,306.438199
7186.715433,-2812.782580,-8142.265362,612.876398
7186.715750,-2886.803174,-7624.121203,919.314598
7186.716066,-4071.132681,-8660.409521,76.609550
7186.716383,-5551.544565,-8956.491898,0.000000
7186.716699,-4071.132681,-9178.553681,-1225.752797
7186.717015,-3478.967927,-8660.409521,-1685.410096
7186.717332,-3256.906145,-8956.491898,766.095498
7186.717648,-3256.906145,-8364.327145,2757.943793
7186.717964,-1850.514855,-8734.430116,2604.724693
7186.718281,-1184.329507,-9030.512492,1149.143247
7186.718597,-2442.679609,-8734.430116,383.047749
7186.718913,-4737.318029,-8660.409521,766.095498
7186.719230,-5477.523971,-8216.285956,-383.047749
7186.719546,-4589.276840,-9474.636058,-1608.800546
7186.719862,-4737.318029,-9030.512492,-1302.362347
7186.720179,-5181.441594,-9400.615463,-229.828649
7186.720495,-4811.338623,-9252.574275,459.657299
7186.720811,-3404.947333,-8956.491898,919.314598
7186.721128,-2516.700203,-8956.491898,689.485948
7186.721444,-2664.741391,-8586.388927,689.485948
7186.721760,-2294.638420,-8586.388927,2451.505594
7186.722077,-2220.617826,-7920.203579,2681.334243
7186.722393,-2368.659014,-8660.409521,1915.238745
7186.722709,-3923.091493,-8364.327145,1149.143247
7186.723026,-4885.359217,-7772.162391,0.000000
7186.723342,-5847.626942,-7994.224174,-1915.238745
7186.723658,-6439.791695,-8068.244768,-1915.238745
7186.723975,-6365.771101,-8586.388927,-2834.553343
7186.724291,-6143.709319,-8512.368333,-1532.190996
7186.724608,-4663.297435,-9252.574275,-612.876398
7186.724924,-3627.009116,-9104.533087,1072.533697
7186.725240,-2960.823768,-9474.636058,1532.190996
7186.725557,-2664.741391,-9474.636058,2298.286494
7186.725873,-2294.638420,-8734.430116,2068.457845
7186.726189,-3034.844362,-8142.265362,1685.410096
7186.726506,-3404.947333,-9178.553681,1378.971896
7186.726822,-3552.988522,-8734.430116,689.485948
7186.727138,-3108.864956,-8660.409521,-383.047749
7186.727455,-4441.235652,-8290.306550,-919.314598
7186.727771,-5477.523971,-7846.182985,-995.924147
7186.728087,-5699.585753,-8216.285956,-1608.800546
7186.728404,-4737.318029,-8216.285956,-2221.676944
7186.728720,-4737.318029,-8956.491898,-2068.457845
7186.729036,-5403.503377,-9178.553681,229.828649
7186.729353,-5181.441594,-9474.636058,1378.971896
7186.729669,-3034.844362,-9992.780217,919.314598
7186.729985,-1258.350101,-9770.718434,842.705048
7186.730302,-814.226536,-9252.574275,2451.505594
7186.730618,-1036.288319,-8808.450710,3370.820191
7186.730934,-2072.576638,-8512.368333,3524.039291
7186.731251,-3478.967927,-7846.182985,1225.752797
7186.731567,-4515.256246,-8512.368333,-306.438199
7186.731883,-5033.400406,-8660.409521,-2374.896044
7186.732200,-4885.359217,-8882.471304,-2757.943793
7186.732516,-5921.647536,-7550.100608,-1991.848295
7186.732832,-6735.874072,-7105.977043,-536.266849
7186.733149,-6883.915261,-8216.285956,0.000000
7186.733465,-4367.215058,-8660.409521,-919.314598
7186.733782,-1850.514855,-9326.594869,-1149.143247
7186.734098,-1776.494261,-9474.636058,1072.533697
7186.734414,-2220.617826,-8586.388927,3753.867940
7186.734731,-2664.741391,-9030.512492,4903.011187
7186.735047,-1406.391290,-9326.594869,2451.505594
7186.735363,-1924.535449,-8660.409521,383.047749
7186.735680,-4293.194464,-8734.430116,0.000000
7186.735996,-6291.750507,-8364.327145,-383.047749
7186.736312,-5181.441594,-8660.409521,-1991.848295
7186.736629,-4441.235652,-8068.244768,-2528.115143
7186.736945,-5921.647536,-7994.224174,-1378.971896
7186.737261,-6735.874072,-8956.491898,0.000000
7186.737578,-4737.318029,-9030.512492,-459.657299
7186.737894,-3182.885551,-8216.285956,-536.266849
7186.738210,-2442.679609,-8882.471304,995.924147
7186.738527,-3478.967927,-8956.491898,2911.162892
7186.738843,-3034.844362,-8586.388927,3524.039291
7186.739159,-2368.659014,-8734.430116,2068.457845
7186.739476,-2590.720797,-9252.574275,995.924147
7186.739792,-4071.132681,-9326.594869,689.485948
7186.740108,-5033.400406,-7920.203579,-459.657299
7186.740425,-4515.256246,-7698.141797,-1302.362347
7186.740741,-4441.235652,-8364.327145,-1532.190996
7186.741057,-6143.709319,-8142.265362,-842.705048
7186.741374,-6513.812290,-8216.285956,-689.485948
7186.741690,-5107.421000,-8216.285956,-612.876398
7186.742006,-3997.112087,-8586.388927,-459.657299
7186.742323,-4441.235652,-8290.306550,689.485948
7186.742639,-3701.029710,-8734.430116,1378.971896
7186.742956,-3182.885551,-9030.512492,2068.457845
7186.743272,-2146.597232,-8438.347739,1532.190996
7186.743588,-2960.823768,-9548.656652,1608.800546
7186.743905,-3552.988522,-8882.471304,2068.457845
7186.744221,-3923.091493,-8956.491898,1072.533697
7186.744537,-5255.462188,-8660.409521,76.609550
7186.744854,-5107.421000,-8734.430116,-1302.362347
7186.745170,-5255.462188,-8290.306550,-1915.238745
7186.745486,-4885.359217,-7402.059420,-1685.410096
7186.745803,-4293.194464,-8364.327145,-689.485948
7186.746119,-4811.338623,-8216.285956,0.000000
7186.746435,-3404.947333,-8512.368333,306.438199
7186.746752,-2738.761985,-9104.533087,383.047749
7186.747068,-2886.803174,-8660.409521,1455.581446
7186.747384,-3034.844362,-8808.450710,1225.752797
7186.747701,-3182.885551,-9030.512492,1072.533697
7186.748017,-2516.700203,-9474.636058,612.876398
7186.748333,-2960.823768,-8956.491898,536.266849
7186.748650,-3775.050304,-9400.615463,689.485948
7186.748966,-4145.153275,-8882.471304,459.657299
7186.749282,-4071.132681,-8956.491898,0.000000
7186.749599,-4589.276840,-8808.450710,-229.828649
7186.749915,-4589.276840,-8882.471304,-383.047749
7186.750231,-4737.318029,-8512.368333,-1149.143247
7186.750548,-3997.112087,-7994.224174,0.000000
7186.750864,-3034.844362,-8512.368333,-459.657299
7186.751180,-3034.844362,-8290.306550,766.095498
7186.751497,-3256.906145,-8512.368333,919.314598
7186.751813,-3775.050304,-8808.450710,2221.676944
7186.752130,-3701.029710,-8808.450710,612.876398
7186.752446,-2960.823768,-9622.677246,0.000000
7186.752762,-3775.050304,-8956.491898,689.485948
7186.753079,-4589.276840,-8956.491898,612.876398
7186.753395,-3849.070898,-9326.594869,612.876398
7186.753711,-3404.947333,-8956.491898,306.438199
7186.754028,-3034.844362,-8956.491898,536.266849
7186.754344,-3775.050304,-8290.306550,766.095498
7186.754660,-4219.173869,-8142.265362,1149.143247
7186.754977,-3478.967927,-7698.141797,383.047749
7186.755293,-3404.947333,-7920.203579,76.609550
7186.755609,-3997.112087,-8364.327145,-383.047749
7186.755926,-5181.441594,-8142.265362,0.000000
7186.756242,-5477.523971,-8660.409521,-306.438199
7186.756558,-4811.338623,-9252.574275,-229.828649
7186.756875,-3923.091493,-8956.491898,-612.876398
7186.757191,-4145.153275,-8882.471304,536.266849
7186.757507,-4071.132681,-9400.615463,995.924147
7186.757824,-3182.885551,-9844.739029,1378.971896
7186.758140,-2960.823768,-9178.553681,1378.971896
7186.758456,-2886.803174,-8956.491898,1378.971896
7186.758773,-3997.112087,-8808.450710,1838.629195
7186.759089,-4145.153275,-8290.306550,1225.752797
7186.759405,-4145.153275,-8142.265362,0.000000
7186.759722,-4663.297435,-7105.977043,-612.876398
7186.760038,-5477.523971,-7254.018232,-1149.143247
7186.760354,-6587.832884,-7550.100608,-995.924147
7186.760671,-5921.647536,-7846.182985,-1608.800546
7186.760987,-5255.462188,-8142.265362,-1608.800546
7186.761304,-4959.379811,-8216.285956,-383.047749
7186.761620,-5033.400406,-8882.471304,995.924147
7186.761936,-4219.173869,-9400.615463,1685.410096
7186.762253,-3182.885551,-9548.656652,1072.533697
7186.762569,-2664.741391,-9770.718434,1149.143247
7186.762885,-3627.009116,-9252.574275,1225.752797
7186.763202,-3182.885551,-9474.636058,1072.533697
7186.763518,-3182.885551,-9178.553681,459.657299
7186.763834,-3256.906145,-8660.409521,536.266849
7186.764151,-3923.091493,-8068.244768,0.000000
7186.764467,-4293.194464,-8068.244768,0.000000
7186.764783,-4071.132681,-7994.224174,-766.095498
7186.765100,-4515.256246,-7846.182985,-1302.362347
7186.765416,-4219.173869,-8438.347739,-612.876398
7186.765732,-4145.153275,-7920.203579,0.000000
7186.766049,-3552.988522,-8216.285956,1302.362347
7186.766365,-3552.988522,-8882.471304,1915.238745
7186.766681,-3256.906145,-9326.594869,2451.505594
7186.766998,-2960.823768,-9400.615463,1149.143247
7186.767314,-3330.926739,-9548.656652,536.266849
7186.767630,-3330.926739,-9548.656652,306.438199
7186.767947,-3849.070898,-9104.533087,-153.219100
7186.768263,-3478.967927,-9178.553681,-383.047749
7186.768579,-3849.070898,-9622.677246,-459.657299
7186.768896,-3849.070898,-9104.533087,-153.219100
7186.769212,-3701.029710,-8438.347739,-229.828649
7186.769528,-2664.741391,-8586.388927,229.828649
7186.769845,-2368.659014,-8808.450710,0.000000
7186.770161,-1998.556043,-8882.471304,995.924147
7186.770478,-1924.535449,-8734.430116,1455.581446
7186.770794,-1998.556043,-8734.430116,1762.019645
7186.771110,-2146.597232,-8956.491898,2068.457845
7186.771427,-3256.906145,-9326.594869,1378.971896
7186.771743,-4071.132681,-9178.553681,1072.533697
7186.772059,-4589.276840,-9622.677246,-459.657299
7186.772376,-5255.462188,-9178.553681,-995.924147
7186.772692,-5773.606348,-9030.512492,-1532.190996
7186.773008,-6217.729913,-8882.471304,-536.266849
7186.773325,-5625.565159,-8734.430116,-536.266849
7186.773641,-4885.359217,-7994.224174,306.438199
7186.773957,-4737.318029,-8068.244768,612.876398
7186.774274,-3775.050304,-7994.224174,536.266849
7186.774590,-3627.009116,-7994.224174,1302.362347
7186.774906,-3330.926739,-7772.162391,995.924147
7186.775223,-3108.864956,-7994.224174,383.047749
7186.775539,-3552.988522,-8068.244768,306.438199
7186.775855,-3775.050304,-8660.409521,76.609550
7186.776172,-4071.132681,-8660.409521,229.828649
7186.776488,-4293.194464,-8882.471304,76.609550
7186.776804,-4441.235652,-9178.553681,-306.438199
7186.777121,-4441.235652,-9992.780217,-919.314598
7186.777437,-3552.988522,-10066.800811,-689.485948
7186.777753,-2738.761985,-9622.677246,-306.438199
7186.778070,-2072.576638,-9030.512492,229.828649
7186.778386,-1554.432478,-9104.533087,1915.238745
7186.778702,-1702.473667,-9030.512492,1762.019645
7186.779019,-1776.494261,-8512.368333,1685.410096
7186.779335,-1776.494261,-8734.430116,612.876398
7186.779652,-2146.597232,-9030.512492,459.657299
7186.779968,-2664.741391,-8734.430116,-306.438199
7186.780284,-3034.844362,-8808.450710,-229.828649
7186.780601,-3182.885551,-8586.388927,-306.438199
7186.780917,-3997.112087,-9030.512492,536.266849
7186.781233,-3701.029710,-9252.574275,229.828649
7186.781550,-3701.029710,-9252.574275,306.438199
7186.781866,-3404.947333,-9474.636058,0.000000
7186.782182,-3182.885551,-9030.512492,229.828649
7186.782499,-2738.761985,-9326.594869,459.657299
7186.782815,-2738.761985,-9178.553681,1072.533697
7186.783131,-2072.576638,-9030.512492,1455.581446
7186.783448,-2516.700203,-8734.430116,1225.752797
7186.783764,-2590.720797,-8068.244768,1072.533697
7186.784080,-2442.679609,-8660.409521,383.047749
7186.784397,-2960.823768,-8734.430116,-459.657299
7186.784713,-2960.823768,-9252.574275,-689.485948
7186.785029,-3034.844362,-8734.430116,-383.047749
7186.785346,-2886.803174,-8586.388927,0.000000
7186.785662,-3478.967927,-9030.512492,383.047749
7186.785978,-3775.050304,-9252.574275,842.705048
7186.786295,-3182.885551,-9326.594869,842.705048
7186.786611,-3256.906145,-9696.697840,459.657299
7186.786927,-3182.885551,-9474.636058,766.095498
7186.787244,-3108.864956,-9474.636058,766.095498
7186.787560,-3182.885551,-9252.574275,459.657299
7186.787876,-3256.906145,-9252.574275,919.314598
7186.788193,-3330.926739,-8586.388927,536.266849
7186.788509,-3108.864956,-8438.347739,459.657299
7186.788826,-3849.070898,-8586.388927,0.000000
7186.789142,-3627.009116,-8734.430116,-383.047749
7186.789458,-3923.091493,-8290.306550,-459.657299
7186.789775,-3478.967927,-8660.409521,0.000000
7186.790091,-3997.112087,-8438.347739,689.485948
7186.790407,-3923.091493,-8438.347739,919.314598
7186.790724,-4145.153275,-9104.533087,536.266849
7186.791040,-3627.009116,-8660.409521,612.876398
7186.791356,-3478.967927,-9400.615463,153.219100
7186.791673,-3478.967927,-8808.450710,229.828649
7186.791989,-3256.906145,-8882.471304,689.485948
7186.792305,-3849.070898,-8438.347739,536.266849
7186.792622,-4071.132681,-8364.327145,153.219100
7186.792938,-3701.029710,-7920.203579,-459.657299
7186.793254,-3627.009116,-7994.224174,-995.924147
7186.793571,-3775.050304,-8216.285956,-919.314598
7186.793887,-3849.070898,-8364.327145,0.000000
7186.794203,-3182.885551,-8734.430116,0.000000
7186.794519,-2812.782580,-8808.450710,306.438199
7186.794836,-2516.700203,-9252.574275,612.876398
7186.795152,-2590.720797,-9252.574275,1302.362347
7186.795468,-2442.679609,-9844.739029,1608.800546
7186.795785,-2294.638420,-9696.697840,1762.019645
7186.796101,-1998.556043,-9474.636058,1225.752797
7186.796417,-2886.803174,-9400.615463,842.705048
7186.796734,-3182.885551,-9474.636058,76.609550
7186.797050,-3404.947333,-9252.574275,-306.438199
7186.797366,-3256.906145,-9104.533087,-306.438199
7186.797683,-3330.926739,-8808.450710,-536.266849
7186.797999,-3256.906145,-9030.512492,-153.219100
7186.798315,-3108.864956,-8438.347739,689.485948
7186.798631,-2886.803174,-9104.533087,-306.438199
7186.798948,-2664.741391,-8882.471304,0.000000
7186.799264,-2442.679609,-9030.512492,306.438199
7186.799580,-2664.741391,-8956.491898,766.095498
7186.799897,-2146.597232,-8882.471304,1302.362347
7186.800213,-2960.823768,-8808.450710,1302.362347
7186.800529,-2368.659014,-8586.388927,919.314598
7186.800846,-3108.864956,-9474.636058,842.705048
7186.801162,-3849.070898,-9030.512492,229.828649
7186.801478,-3923.091493,-8956.491898,76.609550
7186.801795,-4367.215058,-9178.553681,-459.657299
7186.802111,-4219.173869,-8290.306550,-842.705048
7186.802427,-4293.194464,-9326.594869,153.219100
7186.802744,-4663.297435,-7920.203579,-306.438199
7186.803060,-3923.091493,-7920.203579,76.609550
7186.803376,-3330.926739,-8882.471304,229.828649
7186.803692,-3330.926739,-8586.388927,153.219100
7186.804009,-2812.782580,-8808.450710,995.924147
7186.804325,-2738.761985,-9030.512492,842.705048
7186.804641,-2368.659014,-8882.471304,919.314598
7186.804958,-2960.823768,-8808.450710,1072.533697
7186.805274,-3404.947333,-8734.430116,1225.752797
7186.805590,-3256.906145,-8808.450710,459.657299
7186.805907,-4145.153275,-9104.533087,0.000000
7186.806223,-4589.276840,-8438.347739,0.000000
7186.806539,-4145.153275,-9178.553681,-689.485948
7186.806856,-4219.173869,-8882.471304,-459.657299
7186.807172,-3775.050304,-8290.306550,0.000000
7186.807488,-3701.029710,-8512.368333,1149.143247
7186.807804,-3404.947333,-8586.388927,306.438199
7186.808121,-3108.864956,-8882.471304,0.000000
7186.808437,-3404.947333,-8364.327145,536.266849
7186.808753,-3182.885551,-9030.512492,919.314598
7186.809070,-2812.782580,-9400.615463,766.095498
7186.809386,-2294.638420,-8808.450710,459.657299
7186.809702,-2886.803174,-8660.409521,459.657299
7186.810019,-4515.256246,-9548.656652,842.705048
7186.810335,-3775.050304,-8956.491898,-306.438199
7186.810651,-2664.741391,-9474.636058,-1685.410096
7186.810968,-3182.885551,-9252.574275,-995.924147
7186.811284,-4737.318029,-8808.450710,1532.190996
7186.811600,-4959.379811,-9400.615463,1455.581446
7186.811917,-2368.659014,-9548.656652,-383.047749
7186.812233,-592.164754,-9844.739029,-1302.362347
7186.812549,-1554.432478,-8956.491898,383.047749
7186.812865,-3627.009116,-8290.306550,3064.381992
7186.813182,-4145.153275,-9030.512492,2145.067394
7186.813498,-1850.514855,-9474.636058,-229.828649
7186.813814,-1554.432478,-9844.739029,-1762.019645
7186.814131,-3034.844362,-9178.553681,536.266849
7186.814447,-2886.803174,-8068.244768,919.314598
7186.814763,-2220.617826,-7846.182985,995.924147
7186.815080,-3330.926739,-8956.491898,-383.047749
7186.815396,-5403.503377,-8734.430116,459.657299
7186.815712,-5773.606348,-9548.656652,-766.095498
7186.816029,-3404.947333,-9622.677246,-1532.190996
7186.816345,-1628.453072,-9474.636058,-1302.362347
7186.816661,-1924.535449,-8290.306550,2068.457845
7186.816977,-2886.803174,-7624.121203,3217.601092
7186.817294,-3478.967927,-8216.285956,2834.553343
7186.817610,-2146.597232,-9400.615463,-306.438199
7186.817926,-2590.720797,-9252.574275,-1685.410096
7186.818243,-3478.967927,-9030.512492,-1532.190996
7186.818559,-3849.070898,-7994.224174,0.000000
7186.818875,-3627.009116,-8660.409521,229.828649
7186.819192,-3627.009116,-9178.553681,0.000000
7186.819508,-3627.009116,-9696.697840,-383.047749
7186.819824,-3997.112087,-9770.718434,-919.314598
7186.820141,-4293.194464,-9326.594869,0.000000
7186.820457,-3256.906145,-9474.636058,995.924147
7186.820773,-2220.617826,-9252.574275,2298.286494
7186.821089,-2146.597232,-9104.533087,2681.334243
7186.821406,-2664.741391,-8808.450710,3294.210641
7186.821722,-2812.782580,-8142.265362,2068.457845
7186.822038,-2664.741391,-7994.224174,0.000000
7186.822355,-3478.967927,-7402.059420,-1455.581446
7186.822671,-4959.379811,-7031.956449,-2221.676944
7186.822987,-6809.894666,-7402.059420,-2145.067394
7186.823304,-7105.977043,-8808.450710,-3064.381992
7186.823620,-5847.626942,-9844.739029,-3217.601092
7186.823936,-4441.235652,-9622.677246,-2451.505594
7186.824253,-3627.009116,-9770.718434,0.000000
7186.824569,-2590.720797,-9992.780217,3294.210641
7186.824885,-296.082377,-10362.883188,3600.648841
7186.825202,740.205942,-9992.780217,4826.401637
7186.825518,814.226536,-9992.780217,4826.401637
7186.825834,-740.205942,-9178.553681,4749.792088
7186.826150,-1702.473667,-8364.327145,2451.505594
7186.826467,-3256.906145,-7772.162391,0.000000
7186.826783,-4441.235652,-7402.059420,-2987.772442
7186.827099,-6439.791695,-6735.874072,-4290.134789
7186.827416,-7402.059420,-7179.997637,-4290.134789
7186.827732,-7476.080014,-7624.121203,-4366.744339
7186.828048,-7328.038826,-8364.327145,-3447.429741
7186.828365,-6143.709319,-9844.739029,-2145.067394
7186.828681,-3849.070898,-10362.883188,0.000000
7186.828997,-518.144159,-10732.986159,2068.457845
7186.829314,1924.535449,-10436.903782,4519.963438
7186.829630,2590.720797,-10288.862594,7201.297681
7186.829946,1332.370696,-9104.533087,7584.345430
7186.830262,-592.164754,-8882.471304,5209.449386
7186.830579,-2146.597232,-9104.533087,1302.362347
7186.830895,-3330.926739,-9104.533087,-2451.505594
7186.831211,-4589.276840,-8142.265362,-4826.401637
7186.831528,-7031.956449,-7402.059420,-4366.744339
7186.831844,-8882.471304,-7105.977043,-2987.772442
7186.832160,-8734.430116,-7698.141797,-4213.525239
7186.832477,-5403.503377,-9030.512492,-4519.963438
7186.832793,-3034.844362,-9474.636058,-2834.553343
7186.833109,-1998.556043,-8882.471304,1378.971896
7186.833426,-962.267725,-8956.491898,5592.497135
7186.833742,1332.370696,-9918.759623,7201.297681
7186.834058,2516.700203,-10807.006753,6128.763984
7186.834375,962.267725,-9992.780217,4366.744339
7186.834691,-1776.494261,-9474.636058,3447.429741
7186.835007,-3108.864956,-9252.574275,842.705048
7186.835323,-3923.091493,-8734.430116,-2298.286494
7186.835640,-5847.626942,-7624.121203,-3524.039291
7186.835956,-7994.224174,-7846.182985,-3217.601092
7186.836272,-8290.306550,-8660.409521,-3677.258390
7186.836589,-6143.709319,-8512.368333,-4290.134789
7186.836905,-4145.153275,-8660.409521,-3677.258390
7186.837221,-3404.947333,-8586.388927,306.438199
7186.837538,-2294.638420,-9030.512492,3447.429741
7186.837854,-518.144159,-9400.615463,4519.963438
7186.838170,2072.576638,-9992.780217,3830.477490
7186.838487,1628.453072,-10584.944971,4213.525239
7186.838803,-814.226536,-9844.739029,5056.230287
7186.839119,-2590.720797,-8882.471304,1915.238745
7186.839435,-3108.864956,-9178.553681,-306.438199
7186.839752,-5033.400406,-9104.533087,-1991.848295
7186.840068,-7179.997637,-8660.409521,-2987.772442
7186.840384,-7550.100608,-7920.203579,-3983.696590
7186.840701,-6217.729913,-8586.388927,-3830.477490
7186.841017,-5847.626942,-7550.100608,-2451.505594
7186.841333,-5551.544565,-7402.059420,-1072.533697
7186.841650,-3997.112087,-8734.430116,766.095498
7186.841966,-1850.514855,-8882.471304,919.314598
7186.842282,-592.164754,-9252.574275,1838.629195
7186.842599,-518.144159,-9622.677246,3140.991542
7186.842915,-962.267725,-9030.512492,4519.963438
7186.843231,-1258.350101,-9326.594869,2911.162892
7186.843548,-2738.761985,-9326.594869,1608.800546
7186.843864,-3182.885551,-10140.821405,-612.876398
7186.844180,-4885.359217,-9030.512492,-1532.190996
7186.844496,-4737.318029,-8512.368333,-2221.676944
7186.844813,-5921.647536,-8364.327145,-1762.019645
7186.845129,-5181.441594,-8290.306550,-1838.629195
7186.845445,-4071.132681,-8512.368333,-1915.238745
7186.845762,-3182.885551,-8586.388927,-612.876398
7186.846078,-2516.700203,-8586.388927,842.705048
7186.846394,-2960.823768,-7772.162391,1225.752797
7186.846711,-1924.535449,-8956.491898,1455.581446
7186.847027,-1554.432478,-9178.553681,1378.971896
7186.847343,-1628.453072,-9030.512492,1532.190996
7186.847660,-2368.659014,-9474.636058,1455.581446
7186.847976,-3034.844362,-9030.512492,1455.581446
7186.848292,-3478.967927,-9252.574275,0.000000
7186.848608,-4737.318029,-8660.409521,0.000000
7186.848925,-5107.421000,-9030.512492,-842.705048
7186.849241,-4959.379811,-9104.533087,-1225.752797
7186.849557,-4441.235652,-8660.409521,-1532.190996
7186.849874,-3775.050304,-8956.491898,-995.924147
7186.850190,-3478.967927,-8290.306550,76.609550
7186.850506,-3034.844362,-8438.347739,229.828649
7186.850823,-3034.844362,-8068.244768,766.095498
7186.851139,-1776.494261,-9178.553681,306.438199
7186.851455,-1554.432478,-9400.615463,612.876398
7186.851772,-2368.659014,-8660.409521,1149.143247
7186.852088,-2590.720797,-9178.553681,1378.971896
7186.852404,-3182.885551,-8808.450710,1149.143247
7186.852721,-3182.885551,-9326.594869,612.876398
7186.853037,-4515.256246,-9474.636058,536.266849
7186.853353,-3923.091493,-8956.491898,-689.485948
7186.853669,-3627.009116,-8882.471304,-612.876398
7186.853986,-3775.050304,-8882.471304,-536.266849
7186.854302,-3478.967927,-9178.553681,-306.438199
7186.854618,-3108.864956,-9178.553681,0.000000
7186.854935,-3108.864956,-9178.553681,689.485948
7186.855251,-2664.741391,-8956.491898,689.485948
7186.855567,-2368.659014,-9104.533087,383.047749
7186.855884,-1776.494261,-9030.512492,383.047749
7186.856200,-1924.535449,-9400.615463,536.266849
7186.856516,-2294.638420,-9178.553681,919.314598
7186.856833,-2368.659014,-9030.512492,842.705048
7186.857149,-2664.741391,-8956.491898,612.876398
7186.857465,-2812.782580,-9178.553681,842.705048
7186.857781,-3034.844362,-9030.512492,229.828649
7186.858098,-3330.926739,-9252.574275,229.828649
7186.858414,-3627.009116,-9252.574275,0.000000
7186.858730,-3552.988522,-9030.512492,-459.657299
7186.859047,-3701.029710,-8956.491898,76.609550
7186.859363,-3701.029710,-9178.553681,0.000000
7186.859679,-3256.906145,-8808.450710,0.000000
7186.859996,-3256.906145,-8734.430116,153.219100
7186.860312,-3775.050304,-8734.430116,153.219100
7186.860628,-3404.947333,-8660.409521,1225.752797
7186.860945,-3775.050304,-9030.512492,842.705048
7186.861261,-3330.926739,-8956.491898,612.876398
7186.861577,-3256.906145,-9030.512492,76.609550
7186.861893,-3256.906145,-8512.368333,459.657299
7186.862210,-3775.050304,-8586.388927,-459.657299
7186.862526,-3552.988522,-8956.491898,-612.876398
7186.862842,-3404.947333,-9178.553681,0.000000
7186.863159,-3627.009116,-8808.450710,-383.047749
7186.863475,-3701.029710,-8956.491898,-383.047749
7186.863791,-3775.050304,-8660.409521,76.609550
7186.864108,-3849.070898,-9178.553681,-229.828649
7186.864424,-3849.070898,-8956.491898,536.266849
7186.864740,-3775.050304,-9326.594869,153.219100
7186.865057,-3404.947333,-8290.306550,689.485948
7186.865373,-3034.844362,-8734.430116,229.828649
7186.865689,-3182.885551,-9030.512492,459.657299
7186.866006,-3034.844362,-9104.533087,229.828649
7186.866322,-3330.926739,-8660.409521,536.266849
7186.866638,-3182.885551,-8734.430116,229.828649
7186.866954,-3256.906145,-8660.409521,536.266849
7186.867271,-3330.926739,-8808.450710,-229.828649
7186.867587,-3182.885551,-8734.430116,306.438199
7186.867903,-3552.988522,-8956.491898,-153.219100
7186.868220,-3627.009116,-8808.450710,536.266849
7186.868536,-3108.864956,-9474.636058,459.657299
7186.868852,-3330.926739,-9252.574275,612.876398
7186.869169,-2812.782580,-9252.574275,306.438199
7186.869485,-2442.679609,-8660.409521,612.876398
7186.869801,-2442.679609,-8734.430116,689.485948
7186.870118,-2886.803174,-8660.409521,689.485948
7186.870434,-2368.659014,-8882.471304,919.314598
7186.870750,-2886.803174,-9104.533087,229.828649
7186.871066,-3256.906145,-9104.533087,76.609550
7186.871383,-3478.967927,-9030.512492,0.000000
7186.871699,-3849.070898,-9030.512492,153.219100
7186.872015,-3552.988522,-8808.450710,306.438199
7186.872332,-4145.153275,-8956.491898,842.705048
7186.872648,-3849.070898,-8882.471304,612.876398
7186.872964,-4071.132681,-8660.409521,536.266849
7186.873281,-4145.153275,-8586.388927,842.705048
7186.873597,-4737.318029,-8364.327145,1149.143247
7186.873913,-5181.441594,-8216.285956,1378.971896
7186.874230,-5033.400406,-8216.285956,766.095498
7186.874546,-4811.338623,-8364.327145,842.705048
7186.874862,-4959.379811,-7846.182985,0.000000
7186.875179,-6069.688724,-7550.100608,0.000000
7186.875495,-6365.771101,-7476.080014,0.000000
7186.875811,-5921.647536,-8068.244768,-536.266849
7186.876127,-5477.523971,-8068.244768,-1149.143247
7186.876444,-5255.462188,-7328.038826,-612.876398
7186.876760,-4737.318029,-8364.327145,0.000000
7186.877076,-3923.091493,-8364.327145,459.657299
7186.877393,-3997.112087,-8438.347739,383.047749
7186.877709,-3701.029710,-8660.409521,689.485948
7186.878025,-3627.009116,-8586.388927,919.314598
7186.878342,-3330.926739,-9252.574275,459.657299
7186.878658,-3108.864956,-9474.636058,-306.438199
7186.878974,-3330.926739,-9474.636058,689.485948
7186.879291,-4145.153275,-9326.594869,842.705048
7186.879607,-3849.070898,-9178.553681,459.657299
7186.879923,-3627.009116,-9474.636058,0.000000
7186.880239,-4293.194464,-8882.471304,0.000000
7186.880556,-4071.132681,-9178.553681,-153.219100
7186.880872,-3552.988522,-8216.285956,383.047749
7186.881188,-2886.803174,-7846.182985,1149.143247
7186.881505,-3552.988522,-8068.244768,689.485948
7186.881821,-3849.070898,-8512.368333,0.000000
7186.882137,-3627.009116,-7624.121203,0.000000
7186.882454,-3775.050304,-7994.224174,-306.438199
7186.882770,-3923.091493,-8290.306550,0.000000
7186.883086,-4515.256246,-8586.388927,76.609550
7186.883403,-4293.194464,-8808.450710,229.828649
7186.883719,-3775.050304,-9326.594869,-306.438199
7186.884035,-3330.926739,-9992.780217,-459.657299
7186.884352,-3923.091493,-9474.636058,612.876398
7186.884668,-3923.091493,-9252.574275,689.485948
7186.884984,-3256.906145,-9326.594869,612.876398
7186.885300,-2960.823768,-9030.512492,842.705048
7186.885617,-2812.782580,-8882.471304,1072.533697
7186.885933,-2590.720797,-8586.388927,1072.533697
7186.886249,-2590.720797,-8364.327145,306.438199
7186.886566,-3552.988522,-7994.224174,0.000000
7186.886882,-3997.112087,-8142.265362,0.000000
7186.887198,-5181.441594,-8438.347739,-536.266849
7186.887515,-5033.400406,-8512.368333,-612.876398
7186.887831,-3997.112087,-8956.491898,-766.095498
7186.888147,-3849.070898,-8956.491898,0.000000
7186.888464,-3775.050304,-8956.491898,919.314598
7186.888780,-3552.988522,-9252.574275,1762.019645
7186.889096,-3923.091493,-9400.615463,1302.362347
7186.889412,-3775.050304,-9474.636058,536.266849
7186.889729,-4219.173869,-9474.636058,612.876398
7186.890045,-3997.112087,-9770.718434,306.438199
7186.890361,-3478.967927,-9104.533087,1149.143247
7186.890678,-3997.112087,-8142.265362,842.705048
7186.890994,-4737.318029,-7402.059420,1608.800546
7186.891310,-4737.318029,-7772.162391,-229.828649
7186.891627,-4737.318029,-7550.100608,-689.485948
7186.891943,-5033.400406,-7254.018232,-1378.971896
7186.892259,-5107.421000,-7254.018232,-919.314598
7186.892576,-5033.400406,-7328.038826,0.000000
7186.892892,-5033.400406,-7920.203579,76.609550
7186.893208,-4811.338623,-8438.347739,0.000000
7186.893524,-4737.318029,-9178.553681,229.828649
7186.893841,-4293.194464,-9252.574275,229.828649
7186.894157,-4071.132681,-9400.615463,459.657299
7186.894473,-3478.967927,-9326.594869,1072.533697
7186.894789,-3034.844362,-9400.615463,1532.190996
7186.895106,-2812.782580,-9548.656652,1915.238745
7186.895422,-2072.576638,-9696.697840,1072.533697
7186.895738,-2368.659014,-8956.491898,459.657299
7186.896054,-3478.967927,-8290.306550,153.219100
7186.896371,-3849.070898,-7698.141797,383.047749
7186.896687,-3997.112087,-8068.244768,-306.438199
7186.897003,-3997.112087,-7698.141797,-153.219100
7186.897319,-4589.276840,-8438.347739,-229.828649
7186.897636,-4885.359217,-8068.244768,-229.828649
7186.897952,-4441.235652,-9104.533087,-229.828649
7186.898268,-3997.112087,-8660.409521,-459.657299
7186.898584,-3849.070898,-9104.533087,612.876398
7186.898901,-3997.112087,-9474.636058,1608.800546
7186.899217,-3552.988522,-9104.533087,1378.971896
7186.899533,-2960.823768,-9844.739029,919.314598
7186.899849,-3627.009116,-9548.656652,689.485948
7186.900166,-3330.926739,-9104.533087,229.828649
7186.900482,-3701.029710,-8586.388927,306.438199
7186.900798,-3701.029710,-7994.224174,-766.095498
7186.901114,-3034.844362,-7846.182985,0.000000
7186.901431,-4071.132681,-8290.306550,-383.047749
7186.901747,-3997.112087,-7920.203579,-306.438199
7186.902063,-4071.132681,-7920.203579,-229.828649
7186.902379,-4515.256246,-8808.450710,-383.047749
7186.902696,-4145.153275,-9030.512492,0.000000
7186.903012,-4071.132681,-9326.594869,612.876398
7186.903328,-4219.173869,-8808.450710,1302.362347
7186.903644,-3404.947333,-9474.636058,1378.971896
7186.903961,-3775.050304,-9770.718434,1149.143247
7186.904277,-3849.070898,-8808.450710,1072.533697
7186.904593,-4145.153275,-9030.512492,766.095498
7186.904909,-3849.070898,-9400.615463,459.657299
7186.905226,-3404.947333,-8512.368333,0.000000
7186.905542,-4737.318029,-7920.203579,229.828649
7186.905858,-4737.318029,-7772.162391,459.657299
7186.906174,-4589.276840,-8142.265362,-842.705048
7186.906491,-4737.318029,-7846.182985,-995.924147
7186.906807,-4811.338623,-7254.018232,-766.095498
7186.907123,-5255.462188,-8364.327145,76.609550
7186.907439,-4293.194464,-8586.388927,0.000000
7186.907756,-2960.823768,-8734.430116,0.000000
7186.908072,-3552.988522,-9104.533087,842.705048
7186.908388,-4811.338623,-8882.471304,2374.896044
7186.908704,-4885.359217,-9252.574275,1685.410096
7186.909021,-3256.906145,-9844.739029,-383.047749
7186.909337,-2368.659014,-9474.636058,-1149.143247
7186.909653,-3849.070898,-8586.388927,766.095498
7186.909969,-6365.771101,-8068.244768,1762.019645
7186.910286,-5625.565159,-8364.327145,76.609550
7186.910602,-3923.091493,-8586.388927,-1915.238745
7186.910918,-3034.844362,-8660.409521,-2298.286494
7186.911235,-3849.070898,-8512.368333,-153.219100
7186.911551,-3849.070898,-7550.100608,1378.971896
7186.911867,-3256.906145,-7772.162391,2068.457845
7186.912183,-3923.091493,-8660.409521,919.314598
7186.912500,-4811.338623,-9622.677246,766.095498
7186.912816,-4515.256246,-9474.636058,-229.828649
7186.913132,-3775.050304,-9030.512492,0.000000
7186.913448,-2516.700203,-9252.574275,1225.752797
7186.913765,-2368.659014,-8734.430116,2604.724693
7186.914081,-2442.679609,-8068.244768,2451.505594
7186.914397,-3923.091493,-8438.347739,1378.971896
7186.914713,-4811.338623,-8956.491898,-919.314598
7186.915030,-5329.482782,-9178.553681,-2834.553343
7186.915346,-4737.318029,-8734.430116,-1838.629195
7186.915662,-4145.153275,-8290.306550,-1149.143247
7186.915978,-4219.173869,-8216.285956,995.924147
7186.916295,-4663.297435,-8734.430116,1685.410096
7186.916611,-2812.782580,-9252.574275,995.924147
7186.916927,-2146.597232,-8734.430116,689.485948
7186.917243,-2590.720797,-8586.388927,1302.362347
7186.917560,-2812.782580,-7994.224174,2451.505594
7186.917876,-2812.782580,-8438.347739,1915.238745
7186.918192,-3256.906145,-8290.306550,1149.143247
7186.918508,-4737.318029,-8364.327145,0.000000
7186.918825,-5921.647536,-8586.388927,-842.705048
7186.919141,-6217.729913,-8216.285956,-2528.115143
7186.919457,-5699.585753,-8290.306550,-2528.115143
7186.919773,-5773.606348,-8438.347739,-1532.190996
7186.920090,-4885.359217,-8586.388927,-306.438199
7186.920406,-3478.967927,-9400.615463,995.924147
7186.920722,-1776.494261,-9400.615463,1225.752797
7186.921038,-1406.391290,-9474.636058,1915.238745
7186.921355,-1480.411884,-9252.574275,2528.115143
7186.921671,-1480.411884,-9178.553681,2604.724693
7186.921987,-1332.370696,-8808.450710,2145.067394
7186.922303,-1998.556043,-9252.574275,1072.533697
7186.922620,-4737.318029,-8734.430116,153.219100
7186.922936,-6587.832884,-8438.347739,-612.876398
7186.923252,-6365.771101,-9326.594869,-1991.848295
7186.923568,-5477.523971,-9400.615463,-2604.724693
7186.923885,-4737.318029,-9104.533087,-2068.457845
7186.924201,-4441.235652,-7846.182985,229.828649
7186.924517,-3627.009116,-7698.141797,1838.629195
7186.924833,-2664.741391,-7772.162391,2145.067394
7186.925150,-3330.926739,-8142.265362,459.657299
7186.925466,-4367.215058,-8216.285956,612.876398
7186.925782,-4737.318029,-8882.471304,612.876398
7186.926098,-3923.091493,-9178.553681,153.219100
7186.926415,-2886.803174,-8956.491898,0.000000
7186.926731,-2886.803174,-8808.450710,536.266849
7186.927047,-4293.194464,-8068.244768,1455.581446
7186.927363,-5551.544565,-7994.224174,689.485948
7186.927680,-5551.544565,-9326.594869,-1532.190996
7186.927996,-3923.091493,-9918.759623,-2221.676944
7186.928312,-3108.864956,-9178.553681,-1302.362347
7186.928628,-3701.029710,-8586.388927,919.314598
7186.928945,-4515.256246,-7698.141797,2528.115143
7186.929261,-4219.173869,-8290.306550,2451.505594
7186.929577,-3627.009116,-8734.430116,0.000000
7186.929893,-2442.679609,-9474.636058,-1685.410096
7186.930210,-3478.967927,-8438.347739,-842.705048
7186.930526,-4737.318029,-7994.224174,383.047749
7186.930842,-4737.318029,-8882.471304,1532.190996
7186.931158,-4145.153275,-9178.553681,842.705048
7186.931475,-3923.091493,-9030.512492,-383.047749
7186.931791,-4811.338623,-8660.409521,0.000000
7186.932107,-4663.297435,-9252.574275,766.095498
7186.932423,-4071.132681,-8660.409521,229.828649
7186.932740,-2886.803174,-8068.244768,0.000000
7186.933056,-3923.091493,-8142.265362,1302.362347
7186.933372,-5033.400406,-8956.491898,1838.629195
7186.933688,-4663.297435,-9252.574275,0.000000
7186.934005,-3256.906145,-8660.409521,-1302.362347
7186.934321,-3552.988522,-8364.327145,-689.485948
7186.934637,-4885.359217,-8290.306550,1302.362347
7186.934953,-4885.359217,-7254.018232,1378.971896
7186.935270,-3552.988522,-8882.471304,76.609550
7186.935586,-3627.009116,-8956.491898,0.000000
7186.935902,-4663.297435,-9178.553681,0.000000
7186.936218,-4737.318029,-8808.450710,0.000000
7186.936535,-3330.926739,-8660.409521,-459.657299
7186.936851,-3108.864956,-8882.471304,536.266849
7186.937167,-4293.194464,-8364.327145,1378.971896
7186.937483,-4441.235652,-8364.327145,1762.019645
7186.937800,-3849.070898,-8808.450710,919.314598
7186.938116,-3997.112087,-8586.388927,-536.266849
7186.938432,-4515.256246,-8290.306550,-153.219100
7186.938748,-5477.523971,-8956.491898,0.000000
7186.939065,-4589.276840,-7920.203579,-306.438199
7186.939381,-3701.029710,-8512.368333,-229.828649
7186.939697,-3923.091493,-8512.368333,153.219100
7186.940013,-4219.173869,-8216.285956,1149.143247
7186.940330,-4219.173869,-8364.327145,1072.533697
7186.940646,-3256.906145,-8512.368333,153.219100
7186.940962,-3627.009116,-9622.677246,229.828649
7186.941278,-3404.947333,-9104.533087,536.266849
7186.941595,-3256.906145,-8512.368333,766.095498
7186.941911,-4219.173869,-8808.450710,1072.533697
7186.942227,-3552.988522,-8808.450710,306.438199
7186.942543,-3997.112087,-8808.450710,306.438199
7186.942860,-3849.070898,-9400.615463,0.000000
7186.943176,-3923.091493,-8660.409521,153.219100
7186.943492,-4293.194464,-8660.409521,76.609550
7186.943808,-3627.009116,-9030.512492,153.219100
7186.944125,-3997.112087,-7994.224174,-153.219100
7186.944441,-3997.112087,-8808.450710,153.219100
7186.944757,-4293.194464,-8290.306550,689.485948
7186.945073,-3701.029710,-8808.450710,0.000000
7186.945390,-3775.050304,-8364.327145,459.657299
7186.945706,-4293.194464,-8586.388927,229.828649
7186.946022,-4441.235652,-9030.512492,919.314598
7186.946338,-3923.091493,-8734.430116,383.047749
7186.946655,-3775.050304,-8734.430116,-612.876398
7186.946971,-3552.988522,-9326.594869,383.047749
7186.947287,-3478.967927,-8364.327145,0.000000
7186.947603,-3404.947333,-8512.368333,229.828649
7186.947920,-3552.988522,-8734.430116,153.219100
7186.948236,-2960.823768,-9252.574275,842.705048
7186.948552,-3404.947333,-9178.553681,153.219100
7186.948868,-3256.906145,-9400.615463,689.485948
7186.949185,-3701.029710,-9622.677246,842.705048
7186.949501,-2812.782580,-9104.533087,842.705048
7186.949817,-3478.967927,-9252.574275,842.705048
7186.950133,-3849.070898,-9252.574275,1072.533697
7186.950450,-4071.132681,-8734.430116,919.314598
7186.950766,-3552.988522,-8068.244768,536.266849
7186.951082,-3627.009116,-7772.162391,0.000000
7186.951398,-4367.215058,-8068.244768,766.095498
7186.951715,-5329.482782,-8216.285956,459.657299
7186.952031,-5551.544565,-8068.244768,0.000000
7186.952347,-5329.482782,-7994.224174,-612.876398
7186.952663,-5773.606348,-8068.244768,-1149.143247
7186.952980,-5551.544565,-8438.347739,-612.876398
7186.953296,-5033.400406,-8438.347739,-459.657299
7186.953612,-4441.235652,-8290.306550,-383.047749
7186.953928,-4219.173869,-8512.368333,76.609550
7186.954245,-4293.194464,-9104.533087,1455.581446
7186.954561,-4071.132681,-9474.636058,1608.800546
7186.954877,-3552.988522,-9178.553681,612.876398
7186.955193,-3182.885551,-9104.533087,689.485948
7186.955510,-3627.009116,-8512.368333,766.095498
7186.955826,-4071.132681,-8068.244768,995.924147
7186.956142,-4293.194464,-8142.265362,153.219100
7186.956458,-4367.215058,-8068.244768,0.000000
7186.956775,-4441.235652,-8290.306550,-919.314598
7186.957091,-4589.276840,-7994.224174,-766.095498
7186.957407,-4367.215058,-8364.327145,-689.485948
7186.957723,-4145.153275,-8660.409521,-383.047749
7186.958040,-4589.276840,-8586.388927,0.000000
7186.958356,-4071.132681,-8216.285956,919.314598
7186.958672,-3701.029710,-8808.450710,612.876398
7186.958988,-2738.761985,-9400.615463,919.314598
7186.959305,-3256.906145,-9252.574275,1685.410096
7186.959621,-3330.926739,-9474.636058,1762.019645
7186.959937,-2812.782580,-8808.450710,1838.629195
7186.960253,-3256.906145,-8438.347739,1455.581446
7186.960570,-3923.091493,-8364.327145,995.924147
7186.960886,-4441.235652,-8068.244768,459.657299
7186.961202,-4441.235652,-7698.141797,-842.705048
7186.961518,-4515.256246,-7698.141797,-995.924147
7186.961835,-5255.462188,-7550.100608,-1072.533697
7186.962151,-5107.421000,-7624.121203,-1225.752797
7186.962467,-4737.318029,-8586.388927,-1532.190996
7186.962783,-3330.926739,-9326.594869,-1378.971896
7186.963100,-2516.700203,-9474.636058,-306.438199
7186.963416,-1554.432478,-9326.594869,1838.629195
7186.963732,-1406.391290,-8956.491898,2374.896044
7186.964048,-1036.288319,-10066.800811,2834.553343
7186.964365,-1184.329507,-10066.800811,1991.848295
7186.964681,-1480.411884,-10362.883188,1378.971896
7186.964997,-2294.638420,-9696.697840,2068.457845
7186.965313,-2516.700203,-9104.533087,1149.143247
7186.965630,-3849.070898,-8438.347739,766.095498
7186.965946,-4589.276840,-8364.327145,229.828649
7186.966262,-5181.441594,-8660.409521,-1072.533697
7186.966578,-6143.709319,-8142.265362,-1455.581446
7186.966895,-6365.771101,-8438.347739,-2221.676944
7186.967211,-6513.812290,-8216.285956,-919.314598
7186.967527,-5921.647536,-8438.347739,-229.828649
7186.967843,-4737.318029,-8364.327145,766.095498
7186.968160,-4293.194464,-8734.430116,842.705048
7186.968476,-4071.132681,-8216.285956,1302.362347
7186.968792,-3849.070898,-8586.388927,1455.581446
7186.969108,-3552.988522,-8586.388927,995.924147
7186.969425,-3330.926739,-8586.388927,383.047749
7186.969741,-3478.967927,-8956.491898,0.000000
7186.970057,-4071.132681,-8586.388927,0.000000
7186.970373,-4293.194464,-8290.306550,-689.485948
7186.970690,-4441.235652,-8586.388927,-536.266849
7186.971006,-4219.173869,-8512.368333,-1072.533697
7186.971322,-3997.112087,-9030.512492,-1302.362347
7186.971638,-3478.967927,-9030.512492,-383.047749
7186.971955,-2516.700203,-9252.574275,0.000000
7186.972271,-1850.514855,-8882.471304,919.314598
7186.972587,-962.267725,-9400.615463,1532.190996
7186.972903,-1406.391290,-9474.636058,1915.238745
7186.973220,-1480.411884,-9400.615463,1608.800546
7186.973536,-1554.432478,-9326.594869,919.314598
7186.973852,-2220.617826,-9548.656652,612.876398
7186.974168,-2812.782580,-9474.636058,-153.219100
7186.974485,-3108.864956,-8808.450710,0.000000
7186.974801,-2812.782580,-9178.553681,0.000000
7186.975117,-3108.864956,-8734.430116,-306.438199
7186.975433,-3552.988522,-8956.491898,-229.828649
7186.975750,-3404.947333,-9252.574275,0.000000
7186.976066,-3034.844362,-8882.471304,-229.828649
7186.976382,-2442.679609,-8586.388927,0.000000
7186.976698,-2590.720797,-8586.388927,383.047749
7186.977015,-2294.638420,-9104.533087,1072.533697
7186.977331,-2368.659014,-9252.574275,1302.362347
7186.977647,-1850.514855,-9030.512492,1072.533697
7186.977963,-2368.659014,-8882.471304,459.657299
7186.978280,-2960.823768,-8808.450710,766.095498
7186.978596,-3108.864956,-9030.512492,306.438199
7186.978912,-3404.947333,-9104.533087,0.000000
7186.979228,-3478.967927,-8882.471304,-459.657299
7186.979545,-3330.926739,-8512.368333,-229.828649
7186.979861,-3330.926739,-8882.471304,0.000000
7186.980177,-3627.009116,-8660.409521,0.000000
7186.980493,-3627.009116,-9178.553681,536.266849
7186.980810,-3701.029710,-9326.594869,459.657299
7186.981126,-3108.864956,-9178.553681,766.095498
7186.981442,-3034.844362,-9622.677246,766.095498
7186.981758,-2738.761985,-9474.636058,1302.362347
7186.982075,-2886.803174,-8956.491898,383.047749
7186.982391,-3256.906145,-9178.553681,1225.752797
7186.982707,-3478.967927,-9400.615463,842.705048
7186.983023,-3923.091493,-9252.574275,383.047749
7186.983340,-3997.112087,-8734.430116,0.000000
7186.983656,-4293.194464,-8808.450710,-76.609550
7186.983972,-4515.256246,-8660.409521,0.000000
7186.984289,-4145.153275,-7698.141797,-612.876398
7186.984605,-3923.091493,-8216.285956,-536.266849
7186.984921,-3552.988522,-8438.347739,0.000000
7186.985237,-3330.926739,-8290.306550,153.219100
7186.985554,-3701.029710,-8216.285956,459.657299
7186.985870,-3627.009116,-8364.327145,0.000000
7186.986186,-3627.009116,-8290.306550,459.657299
7186.986502,-3849.070898,-8142.265362,153.219100
7186.986819,-3775.050304,-8660.409521,229.828649
7186.987135,-3775.050304,-8660.409521,0.000000
7186.987451,-3701.029710,-8364.327145,-766.095498
7186.987767,-3478.967927,-8734.430116,0.000000
7186.988084,-3627.009116,-8734.430116,-153.219100
7186.988400,-3552.988522,-8956.491898,306.438199
7186.988716,-3108.864956,-9104.533087,0.000000
7186.989032,-2368.659014,-9104.533087,459.657299
7186.989349,-2368.659014,-9474.636058,689.485948
7186.989665,-2812.782580,-9400.615463,766.095498
7186.989981,-2812.782580,-9252.574275,1072.533697
7186.990297,-2886.803174,-9326.594869,0.000000
7186.990614,-2368.659014,-9696.697840,0.000000
7186.990930,-2368.659014,-9474.636058,0.000000
7186.991246,-2368.659014,-9178.553681,689.485948
7186.991562,-2886.803174,-8808.450710,1455.581446
7186.991879,-2368.659014,-9030.512492,766.095498
7186.992195,-2960.823768,-8808.450710,229.828649
7186.992511,-2886.803174,-9474.636058,-229.828649
7186.992827,-3478.967927,-9252.574275,-306.438199
7186.993144,-3034.844362,-8956.491898,-153.219100
7186.993460,-3404.947333,-9400.615463,76.609550
7186.993776,-3478.967927,-8586.388927,-153.219100
7186.994092,-2960.823768,-9548.656652,-153.219100
7186.994409,-3330.926739,-9030.512492,-229.828649
7186.994725,-2738.761985,-8734.430116,76.609550
7186.995041,-3108.864956,-9326.594869,306.438199
7186.995357,-2738.761985,-8956.491898,612.876398
7186.995673,-2960.823768,-9030.512492,1302.362347
7186.995989,-3256.906145,-8808.450710,1378.971896
7186.996306,-3182.885551,-8660.409521,689.485948
7186.996622,-2886.803174,-9474.636058,919.314598
7186.996938,-4071.132681,-8956.491898,0.000000
7186.997254,-3923.091493,-8586.388927,0.000000
7186.997570,-4293.194464,-8586.388927,0.000000
7186.997886,-3627.009116,-8734.430116,-459.657299
7186.998203,-3775.050304,-8734.430116,153.219100
7186.998519,-3701.029710,-8734.430116,306.438199
7186.998835,-3552.988522,-8734.430116,383.047749
7186.999151,-2812.782580,-8660.409521,612.876398
7186.999467,-3701.029710,-8364.327145,919.314598
7186.999783,-3552.988522,-8364.327145,612.876398
7187.000100,-3182.885551,-9252.574275,306.438199
7187.000416,-3034.844362,-8586.388927,306.438199
7187.000732,-3627.009116,-8586.388927,383.047749
7187.001048,-4219.173869,-8364.327145,536.266849
7187.001364,-3552.988522,-9030.512492,919.314598
7187.001680,-3997.112087,-8438.347739,-612.876398
7187.001997,-4293.194464,-8068.244768,-383.047749
7187.002313,-4737.318029,-8956.491898,153.219100
7187.002629,-3923.091493,-9474.636058,0.000000
7187.002945,-2886.803174,-8438.347739,-612.876398
7187.003261,-3330.926739,-8364.327145,0.000000
7187.003577,-4441.235652,-8586.388927,1762.019645
7187.003894,-3923.091493,-8734.430116,766.095498
7187.004210,-1776.494261,-9252.574275,-1149.143247
7187.004526,-1332.370696,-9474.636058,-842.705048
7187.004842,-3552.988522,-8512.368333,1455.581446
7187.005158,-4885.359217,-8512.368333,2298.286494
7187.005474,-3849.070898,-9622.677246,766.095498
7187.005791,-1628.453072,-10140.821405,-1685.410096
7187.006107,-1924.535449,-9696.697840,-1455.581446
7187.006423,-3552.988522,-8882.471304,1302.362347
7187.006739,-3627.009116,-8882.471304,1838.629195
7187.007055,-3108.864956,-8734.430116,1149.143247
7187.007371,-3478.967927,-9400.615463,0.000000
7187.007688,-4145.153275,-10214.842000,-306.438199
7187.008004,-2590.720797,-9622.677246,-842.705048
7187.008320,-1110.308913,-8586.388927,0.000000
7187.008636,-962.267725,-8660.409521,1685.410096
7187.008952,-2590.720797,-8438.347739,2911.162892
7187.009268,-2812.782580,-8586.388927,1608.800546
7187.009585,-2442.679609,-9252.574275,-842.705048
7187.009901,-2516.700203,-9770.718434,-2221.676944
7187.010217,-4293.194464,-8956.491898,-766.095498
7187.010533,-5107.421000,-8660.409521,919.314598
7187.010849,-4367.215058,-8660.409521,1455.581446
7187.011165,-2886.803174,-9918.759623,0.000000
7187.011482,-3034.844362,-9326.594869,612.876398
7187.011798,-3330.926739,-8734.430116,919.314598
7187.012114,-3108.864956,-7994.224174,1838.629195
7187.012430,-2812.782580,-7994.224174,1225.752797
7187.012746,-2812.782580,-7994.224174,383.047749
7187.013062,-3997.112087,-7846.182985,-153.219100
7187.013379,-4737.318029,-8438.347739,-1302.362347
7187.013695,-5107.421000,-8290.306550,-1991.848295
7187.014011,-4737.318029,-8512.368333,-2068.457845
7187.014327,-4515.256246,-8882.471304,-1532.190996
7187.014643,-4663.297435,-8956.491898,-766.095498
7187.014960,-3997.112087,-9400.615463,153.219100
7187.015276,-2368.659014,-10066.800811,1072.533697
7187.015592,-740.205942,-10288.862594,1225.752797
7187.015908,-1332.370696,-9400.615463,2221.676944
7187.016224,-962.267725,-9252.574275,2987.772442
7187.016540,-1110.308913,-9326.594869,2681.334243
7187.016857,-1332.370696,-8956.491898,842.705048
7187.017173,-2294.638420,-8586.388927,-536.266849
7187.017489,-4145.153275,-7994.224174,-1072.533697
7187.017805,-6069.688724,-7698.141797,-1838.629195
7187.018121,-6513.812290,-8882.471304,-2298.286494
7187.018437,-5773.606348,-9622.677246,-3753.867940
7187.018754,-5107.421000,-9474.636058,-1915.238745
7187.019070,-4515.256246,-9326.594869,153.219100
7187.019386,-2960.823768,-8956.491898,2451.505594
7187.019702,-962.267725,-9030.512492,3294.210641
7187.020018,296.082377,-9252.574275,3140.991542
7187.020334,222.061783,-9030.512492,3524.039291
7187.020651,-2220.617826,-8364.327145,2757.943793
7187.020967,-3923.091493,-8216.285956,995.924147
7187.021283,-4885.359217,-8438.347739,-1378.971896
7187.021599,-6291.750507,-8512.368333,-2987.772442
7187.021915,-6587.832884,-8734.430116,-4060.306139
7187.022231,-5329.482782,-8808.450710,-3524.039291
7187.022548,-5181.441594,-8364.327145,-2374.896044
7187.022864,-4219.173869,-8364.327145,-459.657299
7187.023180,-4145.153275,-9326.594869,306.438199
7187.023496,-2146.597232,-10214.842000,1991.848295
7187.023812,592.164754,-10955.047942,1455.581446
7187.024128,1850.514855,-9918.759623,2911.162892
7187.024445,444.123565,-8808.450710,5132.839837
7187.024761,-1036.288319,-8364.327145,5439.278036
7187.025077,-1110.308913,-8808.450710,2298.286494
7187.025393,-2220.617826,-9474.636058,-1455.581446
7187.025709,-4737.318029,-8882.471304,-3600.648841
7187.026025,-7254.018232,-8068.244768,-3294.210641
7187.026342,-7105.977043,-8438.347739,-2911.162892
7187.026658,-5033.400406,-8956.491898,-3140.991542
7187.026974,-4737.318029,-8364.327145,-1685.410096
7187.027290,-4515.256246,-8512.368333,0.000000
7187.027606,-3404.947333,-9844.739029,2145.067394
7187.027922,-444.123565,-9030.512492,1608.800546
7187.028239,888.247130,-8586.388927,2451.505594
7187.028555,-370.102971,-9178.553681,4826.401637
7187.028871,-2220.617826,-9326.594869,4749.792088
7187.029187,-2294.638420,-9252.574275,1991.848295
7187.029503,-2294.638420,-9326.594869,-1302.362347
7187.029819,-3997.112087,-8734.430116,-1915.238745
7187.030136,-6365.771101,-7550.100608,-1225.752797
7187.030452,-6513.812290,-7698.141797,-1685.410096
7187.030768,-5403.503377,-8290.306550,-2528.115143
7187.031084,-5033.400406,-8808.450710,-2451.505594
7187.031400,-5403.503377,-8882.471304,-1225.752797
7187.031716,-4293.194464,-8364.327145,0.000000
7187.032033,-1628.453072,-8364.327145,612.876398
7187.032349,-962.267725,-9030.512492,2374.896044
7187.032665,-1628.453072,-9030.512492,3217.601092
7187.032981,-1776.494261,-9474.636058,3677.258390
7187.033297,-1110.308913,-9474.636058,1915.238745
7187.033613,-1628.453072,-9252.574275,306.438199
7187.033930,-3849.070898,-9770.718434,306.438199
7187.034246,-5033.400406,-9178.553681,-306.438199
7187.034562,-4885.359217,-9252.574275,-1608.800546
7187.034878,-5255.462188,-9030.512492,-2528.115143
7187.035194,-5033.400406,-8808.450710,-1608.800546
7187.035510,-4515.256246,-8660.409521,-842.705048
7187.035827,-3552.988522,-7846.182985,229.828649
7187.036143,-2738.761985,-8956.491898,919.314598
7187.036459,-2960.823768,-8882.471304,1302.362347
7187.036775,-1406.391290,-8808.450710,536.266849
7187.037091,-962.267725,-9252.574275,1915.238745
7187.037408,-1480.411884,-8808.450710,1915.238745
7187.037724,-2368.659014,-8734.430116,1915.238745
7187.038040,-2886.803174,-9252.574275,842.705048
7187.038356,-3478.967927,-8882.471304,-306.438199
7187.038672,-4145.153275,-8660.409521,-1762.019645
7187.038988,-4885.359217,-8882.471304,-1762.019645
7187.039305,-5033.400406,-8586.388927,-1455.581446
7187.039621,-4219.173869,-8808.450710,-383.047749
7187.039937,-4145.153275,-8808.450710,-229.828649
7187.040253,-3478.967927,-8882.471304,306.438199
7187.040569,-2590.720797,-9178.553681,459.657299
7187.040885,-2146.597232,-8956.491898,995.924147
7187.041202,-2072.576638,-9178.553681,1455.581446
7187.041518,-2368.659014,-8734.430116,1608.800546
7187.041834,-2294.638420,-8512.368333,1302.362347
7187.042150,-2738.761985,-9252.574275,1225.752797
7187.042466,-2960.823768,-9252.574275,229.828649
7187.042782,-3849.070898,-8808.450710,306.438199
7187.043099,-4219.173869,-8808.450710,-383.047749
7187.043415,-4441.235652,-8660.409521,-919.314598
7187.043731,-3552.988522,-8808.450710,-1072.533697
7187.044047,-4145.153275,-8882.471304,-536.266849
7187.044363,-3849.070898,-8808.450710,0.000000
7187.044679,-2960.823768,-8882.471304,0.000000
7187.044996,-2368.659014,-9548.656652,76.609550
7187.045312,-2664.741391,-9326.594869,1072.533697
7187.045628,-2516.700203,-9474.636058,842.705048
7187.045944,-2368.659014,-8808.450710,1378.971896
7187.046260,-2294.638420,-8882.471304,1225.752797
7187.046576,-2516.700203,-9252.574275,766.095498
7187.046893,-2664.741391,-9030.512492,0.000000
7187.047209,-2738.761985,-8956.491898,0.000000
7187.047525,-3182.885551,-9030.512492,-229.828649
7187.047841,-3478.967927,-8808.450710,0.000000
7187.048157,-3552.988522,-8882.471304,0.000000
7187.048473,-3478.967927,-9474.636058,-229.828649
7187.048790,-3701.029710,-8586.388927,0.000000
7187.049106,-3330.926739,-9252.574275,0.000000
7187.049422,-2738.761985,-9326.594869,459.657299
7187.049738,-2442.679609,-9400.615463,612.876398
7187.050054,-2590.720797,-9252.574275,689.485948
7187.050370,-2812.782580,-9030.512492,1225.752797
7187.050687,-2886.803174,-9178.553681,1072.533697
7187.051003,-2812.782580,-9178.553681,919.314598
7187.051319,-3256.906145,-8882.471304,1302.362347
7187.051635,-3701.029710,-8512.368333,383.047749
7187.051951,-4145.153275,-8512.368333,306.438199
7187.052267,-4293.194464,-8586.388927,-306.438199
7187.052584,-4367.215058,-8142.265362,-229.828649
7187.052900,-4219.173869,-8512.368333,0.000000
7187.053216,-4293.194464,-8438.347739,0.000000
7187.053532,-3923.091493,-7772.162391,0.000000
7187.053848,-4071.132681,-8364.327145,229.828649
7187.054164,-3478.967927,-8660.409521,689.485948
7187.054481,-3478.967927,-8586.388927,459.657299
7187.054797,-3478.967927,-8956.491898,459.657299
7187.055113,-3478.967927,-9104.533087,536.266849
7187.055429,-3256.906145,-9326.594869,306.438199
7187.055745,-3627.009116,-8882.471304,76.609550
7187.056061,-2664.741391,-8882.471304,153.219100
7187.056378,-3182.885551,-9400.615463,0.000000
7187.056694,-3108.864956,-9030.512492,-229.828649
7187.057010,-2960.823768,-9178.553681,-306.438199
7187.057326,-2738.761985,-8734.430116,0.000000
7187.057642,-2590.720797,-8956.491898,383.047749
7187.057958,-3034.844362,-8882.471304,536.266849
7187.058275,-2590.720797,-9030.512492,612.876398
7187.058591,-2220.617826,-9622.677246,383.047749
7187.058907,-2590.720797,-9104.533087,536.266849
7187.059223,-2886.803174,-9474.636058,842.705048
7187.059539,-3108.864956,-9326.594869,995.924147
7187.059855,-2738.761985,-9474.636058,459.657299
7187.060172,-3034.844362,-9252.574275,229.828649
7187.060488,-3182.885551,-9104.533087,229.828649
7187.060804,-3627.009116,-8512.368333,459.657299
7187.061120,-3552.988522,-8882.471304,0.000000
7187.061436,-3552.988522,-8808.450710,76.609550
7187.061753,-3552.988522,-8882.471304,-229.828649
7187.062069,-3923.091493,-8586.388927,76.609550
7187.062385,-4293.194464,-8734.430116,0.000000
7187.062701,-4367.215058,-8808.450710,612.876398
7187.063017,-3849.070898,-8882.471304,383.047749
7187.063333,-3701.029710,-8808.450710,1072.533697
7187.063650,-4071.132681,-8808.450710,766.095498
7187.063966,-4441.235652,-8660.409521,1072.533697
7187.064282,-5107.421000,-8512.368333,1455.581446
7187.064598,-4885.359217,-8438.347739,995.924147
7187.064914,-5107.421000,-8364.327145,76.609550
7187.065230,-5033.400406,-8068.244768,0.000000
7187.065547,-5255.462188,-7550.100608,0.000000
7187.065863,-6069.688724,-7772.162391,-383.047749
7187.066179,-5995.668130,-7624.121203,76.609550
7187.066495,-5477.523971,-7772.162391,-306.438199
7187.066811,-5551.544565,-7698.141797,-689.485948
7187.067127,-5625.565159,-8142.265362,-689.485948
7187.067444,-5107.421000,-8808.450710,-766.095498
7187.067760,-4293.194464,-8512.368333,-995.924147
7187.068076,-3330.926739,-8216.285956,153.219100
7187.068392,-2886.803174,-8882.471304,1378.971896
7187.068708,-2960.823768,-9104.533087,1762.019645
7187.069024,-2960.823768,-9252.574275,1149.143247
7187.069341,-2590.720797,-9400.615463,689.485948
7187.069657,-3182.885551,-9178.553681,0.000000
7187.069973,-3552.988522,-8882.471304,689.485948
7187.070289,-3701.029710,-8660.409521,459.657299
7187.070605,-3701.029710,-8438.347739,-153.219100
7187.070921,-4219.173869,-9104.533087,229.828649
7187.071238,-3997.112087,-8660.409521,612.876398
7187.071554,-3775.050304,-8586.388927,-306.438199
7187.071870,-3108.864956,-8438.347739,306.438199
7187.072186,-3775.050304,-8438.347739,1149.143247
7187.072502,-3404.947333,-8364.327145,842.705048
7187.072818,-3256.906145,-8808.450710,-306.438199
7187.073135,-3256.906145,-8734.430116,612.876398
7187.073451,-3552.988522,-8586.388927,919.314598
7187.073767,-4145.153275,-8586.388927,1072.533697
7187.074083,-3849.070898,-8956.491898,306.438199
7187.074399,-4071.132681,-9178.553681,0.000000
7187.074715,-4145.153275,-9474.636058,153.219100
7187.075032,-4293.194464,-8660.409521,229.828649
7187.075348,-3997.112087,-9252.574275,689.485948
7187.075664,-3627.009116,-8364.327145,1149.143247
7187.075980,-3330.926739,-8586.388927,383.047749
7187.076296,-3552.988522,-8956.491898,1225.752797
7187.076612,-3478.967927,-8660.409521,612.876398
7187.076929,-3627.009116,-8660.409521,536.266849
7187.077245,-3404.947333,-8290.306550,0.000000
7187.077561,-3182.885551,-9030.512492,76.609550
7187.077877,-3404.947333,-8438.347739,-459.657299
7187.078193,-3849.070898,-8290.306550,612.876398
7187.078509,-4885.359217,-8882.471304,612.876398
7187.078826,-4737.318029,-8956.491898,229.828649
7187.079142,-4071.132681,-9474.636058,-229.828649
7187.079458,-4071.132681,-8956.491898,0.000000
7187.079774,-3997.112087,-8364.327145,306.438199
7187.080090,-3997.112087,-8956.491898,1762.019645
7187.080406,-3256.906145,-9252.574275,2298.286494
7187.080723,-3552.988522,-8660.409521,995.924147
7187.081039,-4441.235652,-8512.368333,536.266849
7187.081355,-5329.482782,-8586.388927,0.000000
7187.081671,-4959.379811,-8438.347739,-995.924147
7187.081987,-4367.215058,-8808.450710,-1455.581446
7187.082303,-4145.153275,-7846.182985,-1225.752797
7187.082620,-4515.256246,-7698.141797,842.705048
7187.082936,-4293.194464,-7994.224174,536.266849
7187.083252,-3775.050304,-8216.285956,842.705048
7187.083568,-4071.132681,-8956.491898,536.266849
7187.083884,-4441.235652,-8586.388927,689.485948
7187.084200,-3923.091493,-8882.471304,0.000000
7187.084517,-3256.906145,-8734.430116,306.438199
7187.084833,-3182.885551,-8734.430116,383.047749
7187.085149,-4071.132681,-8660.409521,1072.533697
7187.085465,-4515.256246,-8364.327145,1149.143247
7187.085781,-4663.297435,-8734.430116,0.000000
7187.086098,-4441.235652,-8808.450710,-995.924147
7187.086414,-4885.359217,-9030.512492,-995.924147
7187.086730,-4811.338623,-8586.388927,-919.314598
7187.087046,-4145.153275,-8586.388927,306.438199
7187.087362,-4071.132681,-7994.224174,0.000000
7187.087678,-3182.885551,-8956.491898,919.314598
7187.087995,-3404.947333,-8660.409521,229.828649
7187.088311,-2886.803174,-8438.347739,842.705048
7187.088627,-3256.906145,-8882.471304,995.924147
7187.088943,-3108.864956,-8512.368333,995.924147
7187.089259,-2812.782580,-9622.677246,689.485948
7187.089575,-3330.926739,-9104.533087,1455.581446
7187.089892,-3182.885551,-9252.574275,229.828649
7187.090208,-3775.050304,-9474.636058,1072.533697
7187.090524,-4219.173869,-9178.553681,153.219100
7187.090840,-4219.173869,-8734.430116,153.219100
7187.091156,-4589.276840,-8956.491898,-153.219100
7187.091472,-4441.235652,-8512.368333,-229.828649
7187.091789,-4293.194464,-8364.327145,-612.876398
7187.092105,-3330.926739,-8216.285956,-306.438199
7187.092421,-3404.947333,-8142.265362,842.705048
7187.092737,-3849.070898,-8290.306550,1149.143247
7187.093053,-3997.112087,-8290.306550,995.924147
7187.093369,-3478.967927,-8734.430116,306.438199
7187.093686,-3182.885551,-9104.533087,0.000000
7187.094002,-3627.009116,-8734.430116,689.485948
7187.094318,-4737.318029,-8216.285956,1302.362347
7187.094634,-4219.173869,-9104.533087,536.266849
7187.094950,-3775.050304,-8956.491898,536.266849
7187.095266,-4737.318029,-8660.409521,0.000000
7187.095583,-5255.462188,-8142.265362,229.828649
7187.095899,-4663.297435,-9104.533087,0.000000
7187.096215,-4145.153275,-8364.327145,-689.485948
7187.096531,-3997.112087,-7624.121203,-536.266849
7187.096847,-5699.585753,-8512.368333,689.485948
7187.097163,-5625.565159,-7772.162391,383.047749
7187.097480,-3108.864956,-8660.409521,-612.876398
7187.097796,-2516.700203,-8364.327145,-689.485948
7187.098112,-4293.194464,-7994.224174,1225.752797
7187.098428,-6069.688724,-7846.182985,2145.067394
7187.098744,-4959.379811,-8660.409521,689.485948
7187.099060,-2368.659014,-9178.553681,-1532.190996
7187.099377,-2516.700203,-8586.388927,-1302.362347
7187.099693,-4737.318029,-7920.203579,1302.362347
7187.100009,-5995.668130,-8142.265362,2374.896044
7187.100325,-4737.318029,-8808.450710,306.438199
7187.100641,-4219.173869,-9326.594869,-1455.581446
7187.100957,-4663.297435,-9104.533087,-1762.019645
7187.101274,-3849.070898,-9622.677246,-229.828649
7187.101590,-2368.659014,-8438.347739,842.705048
7187.101906,-1702.473667,-8142.265362,1225.752797
7187.102222,-3997.112087,-8364.327145,2451.505594
7187.102538,-5033.400406,-8808.450710,1532.190996
7187.102854,-4293.194464,-9474.636058,-689.485948
7187.103171,-3256.906145,-9622.677246,-2221.676944
7187.103487,-3256.906145,-9400.615463,-995.924147
7187.103803,-4441.235652,-8216.285956,1991.848295
7187.104119,-4737.318029,-7698.141797,3677.258390
7187.104435,-3552.988522,-8586.388927,1608.800546
7187.104751,-3997.112087,-9326.594869,-153.219100
7187.105068,-4145.153275,-8808.450710,-995.924147
7187.105384,-3701.029710,-8216.285956,-919.314598
7187.105700,-2664.741391,-7698.141797,76.609550
7187.106016,-3182.885551,-7476.080014,689.485948
7187.106332,-4811.338623,-8512.368333,153.219100
7187.106648,-5403.503377,-8512.368333,-995.924147
7187.106965,-4071.132681,-9548.656652,-2298.286494
7187.107281,-3404.947333,-9770.718434,-2451.505594
7187.107597,-2664.741391,-9252.574275,229.828649
7187.107913,-2516.700203,-9548.656652,2451.505594
7187.108229,-1850.514855,-9474.636058,4136.915689
7187.108545,-1998.556043,-9474.636058,3217.601092
7187.108862,-2886.803174,-9474.636058,2757.943793
7187.109178,-3627.009116,-9178.553681,1302.362347
7187.109494,-3701.029710,-8068.244768,919.314598
7187.109810,-3330.926739,-7402.059420,306.438199
7187.110126,-5033.400406,-6661.853478,459.657299
7187.110442,-6661.853478,-7179.997637,-536.266849
7187.110759,-7254.018232,-6957.935855,-1762.019645
7187.111075,-7105.977043,-7179.997637,-3753.867940
7187.111391,-7179.997637,-7624.121203,-3983.696590
7187.111707,-6291.750507,-8438.347739,-2604.724693
7187.112023,-4959.379811,-9104.533087,-383.047749
7187.112339,-2738.761985,-9326.594869,1455.581446
7187.112656,-1554.432478,-9548.656652,2451.505594
7187.112972,-1776.494261,-9992.780217,3524.039291
7187.113288,-1628.453072,-10362.883188,4519.963438
7187.113604,-666.185348,-9918.759623,2451.505594
7187.113920,0.000000,-9252.574275,1915.238745
7187.114237,-1406.391290,-8586.388927,1838.629195
7187.114553,-3330.926739,-8068.244768,1378.971896
7187.114869,-5921.647536,-7624.121203,-383.047749
7187.115185,-7624.121203,-7772.162391,-3217.601092
7187.115501,-8512.368333,-8142.265362,-5669.106685
7187.115817,-7994.224174,-9030.512492,-5132.839837
7187.116134,-6069.688724,-8068.244768,-3217.601092
7187.116450,-3923.091493,-8586.388927,0.000000
7187.116766,-3552.988522,-8142.265362,2987.772442
7187.117082,-3256.906145,-8956.491898,4519.963438
7187.117398,-1850.514855,-10066.800811,3447.429741
7187.117714,0.000000,-9992.780217,2221.676944
7187.118031,0.000000,-9326.594869,1915.238745
7187.118347,-2590.720797,-7698.141797,3600.648841
7187.118663,-4737.318029,-7550.100608,2911.162892
7187.118979,-5551.544565,-8512.368333,-153.219100
7187.119295,-5921.647536,-9252.574275,-4290.134789
7187.119611,-7550.100608,-8142.265362,-5745.716235
7187.119928,-8512.368333,-7846.182985,-4060.306139
7187.120244,-6661.853478,-7772.162391,-2374.896044
7187.120560,-3478.967927,-8142.265362,-842.705048
7187.120876,-2812.782580,-8438.347739,1072.533697
7187.121192,-2812.782580,-9030.512492,3830.477490
7187.121508,-1406.391290,-9770.718434,3753.867940
7187.121825,0.000000,-8882.471304,2987.772442
7187.122141,0.000000,-8734.430116,2834.553343
7187.122457,-2368.659014,-8882.471304,4443.353888
7187.122773,-3997.112087,-8512.368333,3140.991542
7187.123089,-4885.359217,-8216.285956,0.000000
7187.123405,-5329.482782,-8512.368333,-3370.820191
7187.123722,-7031.956449,-8512.368333,-3830.477490
7187.124038,-8438.347739,-7698.141797,-3294.210641
7187.124354,-7105.977043,-7772.162391,-2987.772442
7187.124670,-5329.482782,-8586.388927,-1915.238745
7187.124986,-4515.256246,-7994.224174,0.000000
7187.125302,-4515.256246,-8142.265362,1915.238745
7187.125619,-2368.659014,-8660.409521,2987.772442
7187.125935,-1110.308913,-9400.615463,2374.896044
7187.126251,-1110.308913,-9178.553681,2681.334243
7187.126567,-2072.576638,-9252.574275,2451.505594
7187.126883,-2664.741391,-9400.615463,2298.286494
7187.127199,-3256.906145,-8438.347739,995.924147
7187.127516,-3701.029710,-9178.553681,-306.438199
7187.127832,-5995.668130,-8216.285956,0.000000
7187.128148,-6365.771101,-7698.141797,-2145.067394
7187.128464,-6365.771101,-8364.327145,-2528.115143
7187.128780,-5699.585753,-8068.244768,-2451.505594
7187.129096,-5329.482782,-8734.430116,-1532.190996
7187.129413,-4515.256246,-7698.141797,306.438199
7187.129729,-3330.926739,-7920.203579,2145.067394
7187.130045,-2886.803174,-8438.347739,2221.676944
7187.130361,-2738.761985,-8586.388927,1685.410096
7187.130677,-2368.659014,-8438.347739,1378.971896
7187.130993,-2442.679609,-9252.574275,1149.143247
7187.131310,-3256.906145,-9030.512492,1378.971896
7187.131626,-4367.215058,-9030.512492,1225.752797
7187.131942,-4737.318029,-9474.636058,-153.219100
7187.132258,-4663.297435,-8956.491898,-919.314598
7187.132574,-4959.379811,-8882.471304,-1149.143247
7187.132890,-4219.173869,-8660.409521,-1225.752797
7187.133207,-3330.926739,-8660.409521,-919.314598
7187.133523,-3627.009116,-8512.368333,229.828649
7187.133839,-4145.153275,-8142.265362,1532.190996
7187.134155,-3701.029710,-9178.553681,1455.581446
7187.134471,-2368.659014,-9326.594869,383.047749
7187.134787,-962.267725,-9178.553681,383.047749
7187.135104,-2294.638420,-8438.347739,536.266849
7187.135420,-2886.803174,-8364.327145,2451.505594
7187.135736,-3701.029710,-8956.491898,1608.800546
7187.136052,-4589.276840,-8882.471304,229.828649
7187.136368,-4737.318029,-9104.533087,-842.705048
7187.136684,-5625.565159,-8882.471304,-1302.362347
7187.137001,-6217.729913,-8734.430116,-1225.752797
7187.137317,-6439.791695,-8734.430116,-689.485948
7187.137633,-5033.400406,-8734.430116,-919.314598
7187.137949,-4589.276840,-8512.368333,0.000000
7187.138265,-3849.070898,-8438.347739,766.095498
7187.138581,-3182.885551,-8512.368333,1225.752797
7187.138898,-2442.679609,-8660.409521,1378.971896
7187.139214,-3182.885551,-8734.430116,2221.676944
7187.139530,-2812.782580,-7920.203579,1072.533697
7187.139846,-3923.091493,-7772.162391,1838.629195
7187.140162,-4071.132681,-8438.347739,766.095498
7187.140478,-4885.359217,-8512.368333,76.609550
7187.140795,-5033.400406,-8290.306550,-459.657299
7187.141111,-5329.482782,-7994.224174,-229.828649
7187.141427,-5921.647536,-8216.285956,-229.828649
7187.141743,-6661.853478,-8290.306550,-153.219100
7187.142059,-5477.523971,-8660.409521,-766.095498
7187.142375,-5033.400406,-7994.224174,-612.876398
7187.142692,-4589.276840,-8808.450710,0.000000
7187.143008,-4441.235652,-8438.347739,1072.533697
7187.143324,-3923.091493,-8882.471304,1302.362347
7187.143640,-3404.947333,-8438.347739,766.095498
7187.143956,-3256.906145,-8512.368333,306.438199
7187.144273,-3182.885551,-8956.491898,-306.438199
7187.144589,-3701.029710,-8660.409521,-383.047749
7187.144905,-2960.823768,-8438.347739,-766.095498
7187.145221,-3478.967927,-8586.388927,0.000000
7187.145537,-3701.029710,-8808.450710,306.438199
7187.145853,-4219.173869,-8808.450710,612.876398
7187.146170,-3627.009116,-9178.553681,383.047749
7187.146486,-3182.885551,-9178.553681,689.485948
7187.146802,-3627.009116,-9104.533087,536.266849
7187.147118,-3182.885551,-8956.491898,842.705048
7187.147434,-3182.885551,-9474.636058,766.095498
7187.147750,-3478.967927,-8882.471304,1302.362347
7187.148067,-3849.070898,-8660.409521,995.924147
7187.148383,-3997.112087,-8734.430116,459.657299
7187.148699,-3849.070898,-8512.368333,-689.485948
7187.149015,-3923.091493,-8290.306550,-383.047749
7187.149331,-4219.173869,-8142.265362,-1302.362347
7187.149647,-4145.153275,-8660.409521,-919.314598
7187.149964,-3330.926739,-8882.471304,-383.047749
7187.150280,-3404.947333,-8882.471304,0.000000
7187.150596,-3182.885551,-8882.471304,612.876398
7187.150912,-2442.679609,-9252.574275,995.924147
7187.151228,-1628.453072,-8956.491898,1149.143247
7187.151544,-1850.514855,-9400.615463,842.705048
7187.151861,-2442.679609,-9252.574275,1838.629195
7187.152177,-2664.741391,-9622.677246,1149.143247
7187.152493,-3034.844362,-9178.553681,1225.752797
7187.152809,-3775.050304,-8882.471304,612.876398
7187.153125,-4293.194464,-8660.409521,0.000000
7187.153441,-4737.318029,-8660.409521,-766.095498
7187.153758,-4885.359217,-7846.182985,-842.705048
7187.154074,-5329.482782,-7920.203579,-1149.143247
7187.154390,-5403.503377,-8438.347739,-383.047749
7187.154706,-5699.585753,-8216.285956,-229.828649
7187.155022,-4663.297435,-8808.450710,229.828649
7187.155338,-3775.050304,-8660.409521,306.438199
7187.155655,-3997.112087,-8438.347739,919.314598
7187.155971,-4219.173869,-8512.368333,1762.019645
7187.156287,-3552.988522,-8956.491898,1455.581446
7187.156603,-3627.009116,-8438.347739,689.485948
7187.156919,-4145.153275,-8364.327145,383.047749
7187.157235,-4737.318029,-8660.409521,0.000000
7187.157552,-4885.359217,-8438.347739,-766.095498
7187.157868,-4515.256246,-8586.388927,-1378.971896
7187.158184,-4515.256246,-8660.409521,-1915.238745
7187.158500,-4589.276840,-8734.430116,-1225.752797
7187.158816,-3330.926739,-8882.471304,-1455.581446
7187.159132,-2442.679609,-9178.553681,-229.828649
7187.159449,-1998.556043,-8734.430116,842.705048
7187.159765,-1036.288319,-9400.615463,1838.629195
7187.160081,-1184.329507,-9548.656652,1991.848295
7187.160397,-1110.308913,-9474.636058,1685.410096
7187.160713,-1406.391290,-9622.677246,1072.533697
7187.161029,-2294.638420,-9696.697840,1455.581446
7187.161346,-2664.741391,-9104.533087,0.000000
7187.161662,-3108.864956,-9400.615463,0.000000
7187.161978,-3256.906145,-8956.491898,0.000000
7187.162294,-3627.009116,-8956.491898,-612.876398
7187.162610,-3997.112087,-8956.491898,-459.657299
7187.162926,-3627.009116,-9030.512492,-766.095498
7187.163243,-3182.885551,-8808.450710,-459.657299
7187.163559,-2886.803174,-8734.430116,153.219100
7187.163875,-2664.741391,-8290.306550,1149.143247
7187.164191,-1850.514855,-9030.512492,919.314598
7187.164507,-2072.576638,-9030.512492,1378.971896
7187.164823,-2368.659014,-9474.636058,1072.533697
7187.165140,-2368.659014,-9400.615463,766.095498
7187.165456,-2368.659014,-9326.594869,536.266849
7187.165772,-2590.720797,-9400.615463,689.485948
7187.166088,-2590.720797,-9474.636058,76.609550
7187.166404,-3256.906145,-9178.553681,76.609550
7187.166720,-3478.967927,-8808.450710,-612.876398
7187.167037,-3627.009116,-8660.409521,0.000000
7187.167353,-3552.988522,-8956.491898,-689.485948
7187.167669,-4145.153275,-8512.368333,-383.047749
7187.167985,-3330.926739,-9030.512492,-995.924147
7187.168301,-3182.885551,-9030.512492,-153.219100
7187.168617,-2590.720797,-9178.553681,689.485948
7187.168934,-2960.823768,-8734.430116,1149.143247
7187.169250,-2590.720797,-9326.594869,1072.533697
7187.169566,-2886.803174,-9252.574275,1302.362347
7187.169882,-3108.864956,-8956.491898,1149.143247
7187.170198,-3404.947333,-9178.553681,383.047749
7187.170514,-3627.009116,-9326.594869,536.266849
7187.170831,-3849.070898,-9252.574275,76.609550
7187.171147,-4737.318029,-8956.491898,0.000000
7187.171463,-4663.297435,-8808.450710,0.000000
7187.171779,-4515.256246,-8660.409521,0.000000
7187.172095,-4219.173869,-8660.409521,-229.828649
7187.172411,-4367.215058,-8068.244768,76.609550
7187.172728,-4441.235652,-8808.450710,229.828649
7187.173044,-4441.235652,-7920.203579,306.438199
7187.173360,-3330.926739,-7994.224174,383.047749
7187.173676,-3775.050304,-7698.141797,306.438199
7187.173992,-3108.864956,-8364.327145,766.095498
7187.174308,-3404.947333,-8512.368333,536.266849
7187.174625,-3849.070898,-8364.327145,766.095498
7187.174941,-3627.009116,-8882.471304,-153.219100
7187.175257,-3330.926739,-8660.409521,76.609550
7187.175573,-3330.926739,-8882.471304,0.000000
7187.175889,-3330.926739,-8956.491898,-536.266849
7187.176206,-2960.823768,-9400.615463,0.000000
7187.176522,-2812.782580,-9104.533087,536.266849
7187.176838,-2294.638420,-9474.636058,536.266849
7187.177154,-2590.720797,-9400.615463,919.314598
7187.177470,-2368.659014,-9622.677246,612.876398
7187.177786,-2442.679609,-9252.574275,1225.752797
7187.178103,-1998.556043,-9474.636058,459.657299
7187.178419,-2072.576638,-9104.533087,612.876398
7187.178735,-2442.679609,-9030.512492,766.095498
7187.179051,-2886.803174,-9030.512492,995.924147
7187.179367,-2738.761985,-8956.491898,229.828649
7187.179683,-3108.864956,-9326.594869,229.828649
7187.180000,-3404.947333,-8882.471304,0.000000
7187.180316,-3182.885551,-9178.553681,0.000000
7187.180632,-3404.947333,-9178.553681,229.828649
7187.180948,-2812.782580,-8734.430116,0.000000
7187.181264,-2886.803174,-9474.636058,76.609550
7187.181580,-3182.885551,-8882.471304,536.266849
7187.181897,-2516.700203,-9400.615463,383.047749
7187.182213,-2812.782580,-8586.388927,459.657299
7187.182529,-2220.617826,-9178.553681,229.828649
7187.182845,-2442.679609,-9030.512492,1072.533697
7187.183161,-2812.782580,-9548.656652,459.657299
7187.183477,-3182.885551,-8882.471304,536.266849
7187.183794,-3478.967927,-8956.491898,383.047749
7187.184110,-3923.091493,-9030.512492,383.047749
7187.184426,-4145.153275,-8956.491898,0.000000
7187.184742,-4441.235652,-9104.533087,76.609550
7187.185058,-3923.091493,-8586.388927,0.000000
7187.185374,-3849.070898,-8808.450710,-383.047749
7187.185691,-4071.132681,-8438.347739,766.095498
7187.186007,-4145.153275,-8660.409521,229.828649
7187.186323,-3627.009116,-9030.512492,459.657299
7187.186639,-3330.926739,-9030.512492,0.000000
7187.186955,-3552.988522,-7994.224174,612.876398
7187.187271,-3775.050304,-8364.327145,76.609550
7187.187588,-3182.885551,-9252.574275,306.438199
7187.187904,-3404.947333,-9030.512492,383.047749
7187.188220,-3849.070898,-8068.244768,76.609550
7187.188536,-4293.194464,-8660.409521,689.485948
7187.188852,-4071.132681,-9400.615463,306.438199
7187.189168,-2812.782580,-8956.491898,-766.095498
7187.189485,-2664.741391,-8290.306550,-1149.143247
7187.189801,-4737.318029,-8438.347739,1225.752797
7187.190117,-5181.441594,-9104.533087,536.266849
7187.190433,-3627.009116,-9400.615463,-612.876398
7187.190749,-1554.432478,-9400.615463,-1762.019645
7187.191065,-2664.741391,-8956.491898,-229.828649
7187.191382,-4737.318029,-7698.141797,2298.286494
7187.191698,-4811.338623,-8586.388927,1685.410096
7187.192014,-3108.864956,-9104.533087,153.219100
7187.192330,-1480.411884,-9992.780217,-1532.190996
7187.192646,-2664.741391,-8956.491898,0.000000
7187.192962,-2960.823768,-8512.368333,1455.581446
7187.193279,-1702.473667,-8734.430116,1685.410096
7187.193595,-2738.761985,-8512.368333,1532.190996
7187.193911,-4515.256246,-9326.594869,766.095498
7187.194227,-5329.482782,-9622.677246,0.000000
7187.194543,-3256.906145,-9918.759623,-1608.800546
7187.194859,-1628.453072,-9474.636058,-1302.362347
7187.195176,-1850.514855,-8808.450710,689.485948
7187.195492,-2960.823768,-7994.224174,3524.039291
7187.195808,-3478.967927,-8586.388927,2451.505594
7187.196124,-2442.679609,-9326.594869,-306.438199
7187.196440,-1628.453072,-9770.718434,-2528.115143
7187.196756,-2738.761985,-8882.471304,-766.095498
7187.197073,-3330.926739,-8364.327145,919.314598
7187.197389,-2886.803174,-7994.224174,1838.629195
7187.197705,-2294.638420,-9548.656652,306.438199
7187.198021,-3034.844362,-9548.656652,153.219100
7187.198338,-3108.864956,-9992.780217,-612.876398
7187.198654,-2738.761985,-9474.636058,-459.657299
7187.198970,-2516.700203,-8734.430116,459.657299
7187.199286,-1924.535449,-8808.450710,1991.848295
7187.199602,-2516.700203,-8734.430116,2681.334243
7187.199919,-3108.864956,-9178.553681,1838.629195
7187.200235,-3701.029710,-9252.574275,612.876398
7187.200551,-3478.967927,-8808.450710,-919.314598
7187.200867,-4441.235652,-8068.244768,-766.095498
7187.201183,-5181.441594,-7698.141797,0.000000
7187.201500,-4737.318029,-7846.182985,459.657299
7187.201816,-4737.318029,-8660.409521,-766.095498
7187.202132,-4441.235652,-8956.491898,-229.828649
7187.202448,-4145.153275,-8882.471304,-306.438199
7187.202764,-4293.194464,-8438.347739,229.828649
7187.203081,-3997.112087,-8364.327145,1149.143247
7187.203397,-3330.926739,-8808.450710,1302.362347
7187.203713,-3034.844362,-8734.430116,1378.971896
7187.204029,-2738.761985,-8734.430116,995.924147
7187.204345,-2220.617826,-9030.512492,612.876398
7187.204662,-2590.720797,-8438.347739,0.000000
7187.204978,-3849.070898,-8364.327145,-153.219100
7187.205294,-5329.482782,-8734.430116,-536.266849
7187.205610,-5477.523971,-9400.615463,-1455.581446
7187.205927,-4959.379811,-9474.636058,-2145.067394
7187.206243,-3552.988522,-9252.574275,-1225.752797
7187.206559,-2516.700203,-8882.471304,0.000000
7187.206875,-2072.576638,-9474.636058,2068.457845
7187.207191,-1554.432478,-8364.327145,2604.724693
7187.207508,-1924.535449,-8956.491898,2604.724693
7187.207824,-2738.761985,-8882.471304,1838.629195
7187.208140,-2664.741391,-9178.553681,612.876398
7187.208456,-2146.597232,-9252.574275,-459.657299
7187.208772,-2294.638420,-8216.285956,-612.876398
7187.209089,-4515.256246,-7920.203579,0.000000
7187.209405,-6439.791695,-7920.203579,383.047749
7187.209721,-5403.503377,-8660.409521,-1838.629195
7187.210037,-3923.091493,-10066.800811,-3677.258390
7187.210353,-3404.947333,-9474.636058,-2757.943793
7187.210670,-3701.029710,-8882.471304,536.266849
7187.210986,-3034.844362,-8512.368333,3294.210641
7187.211302,-666.185348,-9622.677246,2528.115143
7187.211618,0.000000,-9326.594869,1608.800546
7187.211935,-1184.329507,-8808.450710,1072.533697
7187.212251,-2442.679609,-9178.553681,1991.848295
7187.212567,-2368.659014,-9252.574275,919.314598
7187.212883,-1776.494261,-8512.368333,0.000000
7187.213199,-3552.988522,-8438.347739,-459.657299
7187.213516,-4811.338623,-9104.533087,-306.438199
7187.213832,-4885.359217,-9622.677246,-1608.800546
7187.214148,-3330.926739,-9622.677246,-3524.039291
7187.214464,-3404.947333,-8290.306550,-1608.800546
7187.214780,-3627.009116,-8438.347739,536.266849
7187.215097,-3478.967927,-8586.388927,2145.067394
7187.215413,-2294.638420,-9104.533087,1455.581446
7187.215729,-1036.288319,-9622.677246,612.876398
7187.216045,-2220.617826,-9622.677246,1608.800546
7187.216361,-2442.679609,-8660.409521,1991.848295
7187.216678,-2664.741391,-8512.368333,1302.362347
7187.216994,-2220.617826,-9030.512492,612.876398
7187.217310,-3923.091493,-9400.615463,153.219100
7187.217626,-4885.359217,-8586.388927,-689.485948
7187.217943,-4959.379811,-8956.491898,-1225.752797
7187.218259,-4589.276840,-8586.388927,-2221.676944
7187.218575,-4293.194464,-8142.265362,-1302.362347
7187.218891,-4811.338623,-8956.491898,-306.438199
7187.219207,-3849.070898,-8216.285956,689.485948
7187.219524,-2738.761985,-8660.409521,459.657299
7187.219840,-2368.659014,-9326.594869,459.657299
7187.220156,-2146.597232,-9104.533087,1072.533697
7187.220472,-2294.638420,-8586.388927,2145.067394
7187.220788,-2516.700203,-8216.285956,2145.067394
7187.221105,-2960.823768,-9474.636058,1378.971896
7187.221421,-4293.194464,-8956.491898,459.657299
7187.221737,-3627.009116,-8882.471304,-766.095498
7187.222053,-4663.297435,-8512.368333,-306.438199
7187.222369,-5033.400406,-9030.512492,-842.705048
7187.222686,-4959.379811,-8734.430116,-842.705048
7187.223002,-3849.070898,-8734.430116,-995.924147
7187.223318,-3701.029710,-8956.491898,-689.485948
7187.223634,-3627.009116,-8512.368333,229.828649
7187.223951,-3182.885551,-8660.409521,1225.752797
7187.224267,-2368.659014,-9104.533087,1072.533697
7187.224583,-2146.597232,-9252.574275,1378.971896
7187.224899,-2738.761985,-8956.491898,842.705048
7187.225215,-2442.679609,-9252.574275,612.876398
7187.225532,-1850.514855,-9252.574275,612.876398
7187.225848,-2146.597232,-9030.512492,1072.533697
7187.226164,-3478.967927,-8882.471304,919.314598
7187.226480,-3775.050304,-9030.512492,459.657299
7187.226796,-3330.926739,-9104.533087,-383.047749
7187.227113,-2886.803174,-9400.615463,-1378.971896
7187.227429,-3108.864956,-9178.553681,-612.876398
7187.227745,-2960.823768,-8660.409521,153.219100
7187.228061,-3108.864956,-8660.409521,1378.971896
7187.228377,-2812.782580,-8956.491898,919.314598
7187.228694,-3034.844362,-9474.636058,0.000000
7187.229010,-2590.720797,-9252.574275,0.000000
7187.229326,-2664.741391,-9326.594869,0.000000
7187.229642,-2368.659014,-8882.471304,459.657299
7187.229959,-2294.638420,-8882.471304,919.314598
7187.230275,-2664.741391,-8660.409521,1225.752797
7187.230591,-3034.844362,-8216.285956,842.705048
7187.230907,-2516.700203,-8586.388927,0.000000
7187.231223,-3330.926739,-8512.368333,-229.828649
7187.231540,-3330.926739,-9104.533087,-459.657299
7187.231856,-3627.009116,-9030.512492,0.000000
7187.232172,-3627.009116,-9104.533087,-459.657299
7187.232488,-3256.906145,-9252.574275,-459.657299
7187.232804,-3256.906145,-9474.636058,0.000000
7187.233121,-2738.761985,-9326.594869,383.047749
7187.233437,-2664.741391,-9252.574275,689.485948
7187.233753,-2812.782580,-9252.574275,766.095498
7187.234069,-2442.679609,-9474.636058,919.314598
7187.234385,-2664.741391,-9178.553681,995.924147
7187.234702,-2664.741391,-9104.533087,1149.143247
7187.235018,-2886.803174,-8734.430116,1149.143247
7187.235334,-3997.112087,-7624.121203,842.705048
7187.235650,-3923.091493,-8512.368333,229.828649
7187.235967,-4515.256246,-8290.306550,-383.047749
7187.236283,-4515.256246,-8438.347739,-766.095498
7187.236599,-4959.379811,-8512.368333,-919.314598
7187.236915,-4515.256246,-8660.409521,-536.266849
7187.237231,-4441.235652,-8364.327145,-459.657299
7187.237548,-3997.112087,-8586.388927,383.047749
7187.237864,-3849.070898,-8956.491898,383.047749
7187.238180,-3701.029710,-9326.594869,919.314598
7187.238496,-2960.823768,-9030.512492,383.047749
7187.238812,-3108.864956,-9400.615463,689.485948
7187.239129,-3256.906145,-8808.450710,536.266849
7187.239445,-3108.864956,-9104.533087,842.705048
7187.239761,-3256.906145,-8660.409521,689.485948
7187.240077,-2960.823768,-8882.471304,-383.047749
7187.240393,-3552.988522,-7994.224174,-229.828649
7187.240710,-3108.864956,-8438.347739,0.000000
7187.241026,-3330.926739,-8364.327145,0.000000
7187.241342,-3256.906145,-8660.409521,383.047749
7187.241658,-3256.906145,-8734.430116,0.000000
7187.241974,-3034.844362,-9252.574275,612.876398
7187.242291,-3256.906145,-9104.533087,0.000000
7187.242607,-2960.823768,-9178.553681,1072.533697
7187.242923,-3182.885551,-9252.574275,842.705048
7187.243239,-2812.782580,-9326.594869,842.705048
7187.243556,-2294.638420,-9474.636058,689.485948
7187.243872,-2368.659014,-9252.574275,459.657299
7187.244188,-2664.741391,-8956.491898,766.095498
7187.244504,-2664.741391,-8808.450710,995.924147
7187.244820,-2812.782580,-8586.388927,229.828649
7187.245137,-3108.864956,-8586.388927,0.000000
7187.245453,-3701.029710,-8216.285956,0.000000
7187.245769,-3849.070898,-8438.347739,0.000000
7187.246085,-3849.070898,-8882.471304,0.000000
7187.246401,-3775.050304,-8956.491898,0.000000
7187.246718,-4145.153275,-8734.430116,536.266849
7187.247034,-4293.194464,-8882.471304,919.314598
7187.247350,-3701.029710,-9326.594869,1378.971896
7187.247666,-4737.318029,-9030.512492,612.876398
7187.247982,-4071.132681,-8734.430116,153.219100
7187.248299,-4515.256246,-8660.409521,229.828649
7187.248615,-5107.421000,-8290.306550,842.705048
7187.248931,-5107.421000,-8364.327145,766.095498
7187.249247,-5403.503377,-7698.141797,229.828649
7187.249564,-5033.400406,-7846.182985,0.000000
7187.249880,-6143.709319,-7550.100608,-459.657299
7187.250196,-6217.729913,-7624.121203,-306.438199
7187.250512,-5773.606348,-8068.244768,-612.876398
7187.250828,-5329.482782,-7772.162391,-842.705048
7187.251145,-4737.318029,-7402.059420,0.000000
7187.251461,-5107.421000,-7772.162391,766.095498
7187.251777,-4885.359217,-8586.388927,76.609550
7187.252093,-4515.256246,-8734.430116,383.047749
7187.252409,-3997.112087,-8142.265362,0.000000
7187.252726,-3701.029710,-9104.533087,229.828649
7187.253042,-3182.885551,-9252.574275,459.657299
7187.253358,-2886.803174,-9326.594869,842.705048
7187.253674,-2960.823768,-9252.574275,842.705048
7187.253990,-3034.844362,-8660.409521,995.924147
7187.254307,-3182.885551,-8808.450710,306.438199
7187.254623,-3627.009116,-8512.368333,-306.438199
7187.254939,-3627.009116,-8808.450710,153.219100
7187.255255,-3775.050304,-8660.409521,153.219100
7187.255572,-4071.132681,-8142.265362,612.876398
7187.255888,-3701.029710,-8586.388927,229.828649
7187.256204,-3775.050304,-8512.368333,76.609550
7187.256520,-4145.153275,-8438.347739,0.000000
7187.256836,-4367.215058,-8068.244768,0.000000
7187.257153,-3775.050304,-8734.430116,0.000000
7187.257469,-4219.173869,-8438.347739,536.266849
7187.257785,-4145.153275,-8882.471304,0.000000
7187.258101,-4293.194464,-9104.533087,536.266849
7187.258417,-3923.091493,-9030.512492,0.000000
7187.258734,-3404.947333,-9030.512492,459.657299
7187.259050,-3701.029710,-8956.491898,306.438199
7187.259366,-3256.906145,-8512.368333,1149.143247
7187.259682,-3182.885551,-8660.409521,1225.752797
7187.259998,-2886.803174,-8882.471304,842.705048
7187.260315,-3034.844362,-9104.533087,229.828649
7187.260631,-3256.906145,-8290.306550,306.438199
7187.260947,-3552.988522,-8438.347739,459.657299
7187.261263,-3627.009116,-8438.347739,689.485948
7187.261580,-3775.050304,-8808.450710,0.000000
7187.261896,-3627.009116,-8734.430116,153.219100
7187.262212,-4219.173869,-8734.430116,76.609550
7187.262528,-4663.297435,-8808.450710,612.876398
7187.262844,-4441.235652,-9696.697840,0.000000
7187.263161,-3849.070898,-9622.677246,0.000000
7187.263477,-3478.967927,-9400.615463,995.924147
7187.263793,-4071.132681,-8438.347739,1532.190996
7187.264109,-3775.050304,-8512.368333,2451.505594
7187.264425,-3701.029710,-8438.347739,1762.019645
7187.264742,-3627.009116,-8808.450710,612.876398
7187.265058,-4441.235652,-8216.285956,76.609550
7187.265374,-5181.441594,-7772.162391,306.438199
7187.265690,-5403.503377,-7476.080014,-689.485948
7187.266006,-5551.544565,-7402.059420,-612.876398
7187.266323,-5329.482782,-7624.121203,-1149.143247
7187.266639,-5847.626942,-7402.059420,-689.485948
7187.266955,-5107.421000,-7920.203579,-1072.533697
7187.267271,-4293.194464,-8660.409521,-536.266849
7187.267588,-4367.215058,-8660.409521,153.219100
7187.267904,-4441.235652,-8956.491898,1532.190996
7187.268220,-4071.132681,-9252.574275,1149.143247
7187.268536,-2516.700203,-9474.636058,842.705048
7187.268852,-2220.617826,-9030.512492,459.657299
7187.269169,-1850.514855,-9474.636058,1762.019645
7187.269485,-3034.844362,-8734.430116,1915.238745
7187.269801,-3182.885551,-8068.244768,1838.629195
7187.270117,-4071.132681,-8512.368333,612.876398
7187.270433,-5033.400406,-8216.285956,-383.047749
7187.270750,-4959.379811,-8586.388927,-1991.848295
7187.271066,-4885.359217,-7994.224174,-2145.067394
7187.271382,-3849.070898,-7846.182985,-1378.971896
7187.271698,-4293.194464,-7846.182985,995.924147
7187.272014,-4441.235652,-7698.141797,1838.629195
7187.272331,-4071.132681,-8882.471304,1378.971896
7187.272647,-3256.906145,-9400.615463,306.438199
7187.272963,-2960.823768,-9400.615463,153.219100
7187.273279,-3552.988522,-9696.697840,612.876398
7187.273595,-3478.967927,-8956.491898,1532.190996
7187.273912,-3775.050304,-8660.409521,1072.533697
7187.274228,-4293.194464,-9252.574275,383.047749
7187.274544,-3849.070898,-9474.636058,-842.705048
7187.274860,-4145.153275,-9104.533087,-1072.533697
7187.275177,-3923.091493,-8660.409521,-612.876398
7187.275493,-3627.009116,-8512.368333,-153.219100
7187.275809,-3923.091493,-8142.265362,459.657299
7187.276125,-3108.864956,-8512.368333,842.705048
7187.276441,-2886.803174,-8660.409521,153.219100
7187.276758,-3182.885551,-8808.450710,766.095498
7187.277074,-3701.029710,-7846.182985,1302.362347
7187.277390,-3923.091493,-8290.306550,1225.752797
7187.277706,-3701.029710,-8956.491898,689.485948
7187.278022,-4145.153275,-8808.450710,0.000000
7187.278339,-4811.338623,-8660.409521,-536.266849
7187.278655,-5329.482782,-8956.491898,229.828649
7187.278971,-4663.297435,-9548.656652,76.609550
7187.279287,-3849.070898,-8808.450710,-689.485948
7187.279603,-4589.276840,-8512.368333,76.609550
7187.279920,-5773.606348,-8734.430116,1225.752797
7187.280236,-4811.338623,-8882.471304,689.485948
7187.280552,-2442.679609,-8956.491898,-1302.362347
7187.280868,-2368.659014,-7476.080014,-536.266849
7187.281185,-4441.235652,-7254.018232,2068.457845
7187.281501,-5773.606348,-7550.100608,2757.943793
7187.281817,-4515.256246,-8734.430116,842.705048
7187.282133,-2590.720797,-9104.533087,-1685.410096
7187.282449,-2664.741391,-8142.265362,-1302.362347
7187.282766,-5107.421000,-7772.162391,995.924147
7187.283082,-6365.771101,-7328.038826,1532.190996
7187.283398,-5255.462188,-8216.285956,76.609550
7187.283714,-4811.338623,-9400.615463,-1532.190996
7187.284030,-6143.709319,-9326.594869,-1532.190996
7187.284347,-5255.462188,-9030.512492,-536.266849
7187.284663,-2442.679609,-8956.491898,0.000000
7187.284979,-1406.391290,-7846.182985,1455.581446
7187.285295,-2960.823768,-7920.203579,2528.115143
7187.285611,-4663.297435,-8364.327145,2681.334243
7187.285928,-3701.029710,-9474.636058,-612.876398
7187.286244,-3330.926739,-9696.697840,-2374.896044
7187.286560,-3775.050304,-9178.553681,-1991.848295
7187.286876,-4737.318029,-8586.388927,689.485948
7187.287193,-4737.318029,-8512.368333,2374.896044
7187.287509,-3478.967927,-9030.512492,1149.143247
7187.287825,-3478.967927,-9474.636058,459.657299
7187.288141,-3627.009116,-9178.553681,0.000000
7187.288457,-3478.967927,-8586.388927,766.095498
7187.288774,-3552.988522,-8142.265362,1302.362347
7187.289090,-3034.844362,-8438.347739,1762.019645
7187.289406,-3256.906145,-8364.327145,842.705048
7187.289722,-4367.215058,-8586.388927,383.047749
7187.290038,-5107.421000,-8364.327145,-612.876398
7187.290355,-4885.359217,-8586.388927,-1532.190996
7187.290671,-4071.132681,-8438.347739,-2145.067394
7187.290987,-4441.235652,-8216.285956,-612.876398
7187.291303,-4663.297435,-8660.409521,1149.143247
7187.291619,-3182.885551,-9178.553681,995.924147
7187.291936,-2146.597232,-9548.656652,536.266849
7187.292252,-1702.473667,-9622.677246,766.095498
7187.292568,-2368.659014,-8290.306550,1762.019645
7187.292884,-2146.597232,-8586.388927,2374.896044
7187.293201,-2590.720797,-8512.368333,1685.410096
7187.293517,-3034.844362,-9030.512492,306.438199
7187.293833,-4071.132681,-9030.512492,-383.047749
7187.294149,-5033.400406,-8956.491898,-919.314598
7187.294465,-6291.750507,-8956.491898,-1225.752797
7187.294782,-5699.585753,-9104.533087,-1072.533697
7187.295098,-4367.215058,-8956.491898,-1072.533697
7187.295414,-3330.926739,-8808.450710,0.000000
7187.295730,-2368.659014,-8068.244768,1991.848295
7187.296046,-2516.700203,-7772.162391,2834.553343
7187.296363,-2664.741391,-8290.306550,2451.505594
7187.296679,-3701.029710,-8290.306550,612.876398
7187.296995,-5255.462188,-8216.285956,0.000000
7187.297311,-5773.606348,-8808.450710,-919.314598
7187.297627,-4737.318029,-9252.574275,-2068.457845
7187.297944,-3775.050304,-8734.430116,-1378.971896
7187.298260,-4737.318029,-8438.347739,-383.047749
7187.298576,-6069.688724,-8290.306550,1072.533697
7187.298892,-6365.771101,-8882.471304,306.438199
7187.299209,-4367.215058,-9474.636058,-995.924147
7187.299525,-1924.535449,-9622.677246,-766.095498
7187.299841,-2072.576638,-8808.450710,1149.143247
7187.300158,-2886.803174,-7254.018232,4519.963438
7187.300474,-3775.050304,-7772.162391,4136.915689
7187.300790,-3034.844362,-8734.430116,1072.533697
7187.301106,-2886.803174,-8956.491898,-1838.629195
7187.301423,-4811.338623,-8216.285956,-2145.067394
7187.301739,-6143.709319,-7846.182985,-612.876398
7187.302055,-5699.585753,-8290.306550,0.000000
7187.302371,-4441.235652,-8808.450710,-612.876398
7187.302688,-5255.462188,-8512.368333,-383.047749
7187.303004,-6143.709319,-8882.471304,153.219100
7187.303320,-4737.318029,-9474.636058,153.219100
7187.303636,-2812.782580,-9104.533087,0.000000
7187.303953,-2294.638420,-8438.347739,1302.362347
7187.304269,-3034.844362,-7846.182985,3294.210641
7187.304585,-3775.050304,-8512.368333,3064.381992
7187.304902,-3701.029710,-8438.347739,1302.362347
7187.305218,-2738.761985,-9030.512492,-1225.752797
7187.305534,-3849.070898,-8660.409521,-1149.143247
7187.305850,-5847.626942,-7772.162391,0.000000
7187.306167,-5477.523971,-7550.100608,-459.657299
7187.306483,-4441.235652,-8290.306550,-995.924147
7187.306799,-4737.318029,-8364.327145,-1302.362347
7187.307115,-5699.585753,-8512.368333,-842.705048
7187.307432,-4367.215058,-8438.347739,0.000000
7187.307748,-2886.803174,-9252.574275,0.000000
7187.308064,-2368.659014,-9030.512492,766.095498
7187.308380,-2516.700203,-8734.430116,2451.505594
7187.308697,-3256.906145,-9400.615463,3064.381992
7187.309013,-2516.700203,-8586.388927,1991.848295
7187.309329,-2368.659014,-9030.512492,689.485948
7187.309645,-4515.256246,-8956.491898,-459.657299
7187.309962,-4441.235652,-8290.306550,-689.485948
7187.310278,-5107.421000,-8586.388927,-612.876398
7187.310594,-4959.379811,-8142.265362,-689.485948
7187.310911,-4959.379811,-9030.512492,-842.705048
7187.311227,-4959.379811,-7846.182985,-153.219100
7187.311543,-4071.132681,-8586.388927,0.000000
7187.311859,-4145.153275,-8438.347739,536.266849
7187.312176,-3330.926739,-9104.533087,459.657299
7187.312492,-2664.741391,-8660.409521,919.314598
7187.312808,-2072.576638,-8956.491898,1225.752797
7187.313124,-2294.638420,-8956.491898,1915.238745
7187.313441,-2664.741391,-8660.409521,1838.629195
7187.313757,-3775.050304,-8882.471304,1149.143247
7187.314073,-4737.318029,-9030.512492,766.095498
7187.314389,-4737.318029,-8882.471304,0.000000
7187.314706,-5329.482782,-8660.409521,-919.314598
7187.315022,-4737.318029,-8660.409521,-1532.190996
7187.315338,-4737.318029,-8586.388927,-1149.143247
7187.315655,-5255.462188,-8364.327145,-306.438199
7187.315971,-5477.523971,-8512.368333,76.609550
7187.316287,-4959.379811,-8586.388927,-229.828649
7187.316603,-3478.967927,-9030.512492,-536.266849
7187.316920,-3256.906145,-9104.533087,229.828649
7187.317236,-2812.782580,-8734.430116,1455.581446
7187.317552,-2516.700203,-8882.471304,1532.190996
7187.317868,-2812.782580,-8586.388927,1532.190996
7187.318185,-3552.988522,-8438.347739,1149.143247
7187.318501,-3923.091493,-8216.285956,612.876398
7187.318817,-4737.318029,-8364.327145,-612.876398
7187.319133,-4071.132681,-9400.615463,-766.095498
7187.319450,-4515.256246,-8808.450710,-612.876398
7187.319766,-5255.462188,-9030.512492,0.000000
7187.320082,-5181.441594,-8956.491898,76.609550
7187.320398,-4441.235652,-9252.574275,-766.095498
7187.320715,-4145.153275,-9326.594869,-536.266849
7187.321031,-3330.926739,-9548.656652,153.219100
7187.321347,-2812.782580,-9178.553681,1532.190996
7187.321664,-2368.659014,-8364.327145,1915.238745
7187.321980,-3330.926739,-7994.224174,2145.067394
7187.322296,-3627.009116,-8512.368333,1608.800546
7187.322612,-4293.194464,-8438.347739,612.876398
7187.322929,-4145.153275,-8216.285956,-229.828649
7187.323245,-5107.421000,-7624.121203,0.000000
7187.323561,-5033.400406,-7105.977043,689.485948
7187.323877,-5403.503377,-7624.121203,842.705048
7187.324194,-4737.318029,-8290.306550,536.266849
7187.324510,-5107.421000,-8660.409521,-459.657299
7187.324826,-4959.379811,-8660.409521,-1225.752797
7187.325142,-4515.256246,-8586.388927,-612.876398
7187.325459,-4071.132681,-9104.533087,-229.828649
7187.325775,-3849.070898,-8438.347739,536.266849
7187.326091,-2886.803174,-9178.553681,1072.533697
7187.326408,-3256.906145,-9474.636058,1532.190996
7187.326724,-3034.844362,-9030.512492,842.705048
7187.327040,-3034.844362,-9030.512492,995.924147
7187.327356,-2812.782580,-9030.512492,459.657299
7187.327673,-2960.823768,-8660.409521,1072.533697
7187.327989,-2886.803174,-8142.265362,459.657299
7187.328305,-3404.947333,-7920.203579,1838.629195
7187.328621,-3701.029710,-7550.100608,766.095498
7187.328938,-4219.173869,-7846.182985,459.657299
7187.329254,-5033.400406,-8586.388927,-229.828649
7187.329570,-5329.482782,-8660.409521,-919.314598
7187.329886,-5033.400406,-8882.471304,-1608.800546
7187.330203,-4959.379811,-9104.533087,-1378.971896
7187.330519,-4737.318029,-8586.388927,-689.485948
7187.330835,-4145.153275,-9178.553681,-229.828649
7187.331152,-3182.885551,-9326.594869,689.485948
7187.331468,-2072.576638,-9252.574275,766.095498
7187.331784,-1554.432478,-9030.512492,1225.752797
7187.332100,-1406.391290,-8808.450710,1915.238745
7187.332417,-1924.535449,-8808.450710,2298.286494
7187.332733,-2220.617826,-9252.574275,1915.238745
7187.333049,-1924.535449,-8512.368333,919.314598
7187.333365,-2812.782580,-7846.182985,-153.219100
7187.333682,-4663.297435,-8364.327145,612.876398
7187.333998,-5699.585753,-8734.430116,0.000000
7187.334314,-5107.421000,-8956.491898,-1225.752797
7187.334630,-4811.338623,-9178.553681,-2528.115143
7187.334947,-5477.523971,-8734.430116,-1225.752797
7187.335263,-5699.585753,-9178.553681,459.657299
7187.335579,-4737.318029,-8956.491898,842.705048
7187.335895,-3552.988522,-9030.512492,689.485948
7187.336212,-2738.761985,-8882.471304,1225.752797
7187.336528,-2812.782580,-8882.471304,1915.238745
7187.336844,-3108.864956,-8364.327145,2451.505594
7187.337161,-2738.761985,-7994.224174,995.924147
7187.337477,-2886.803174,-7920.203579,689.485948
7187.337793,-4293.194464,-7920.203579,-766.095498
7187.338109,-5551.544565,-7698.141797,-995.924147
7187.338426,-4737.318029,-8586.388927,-1455.581446
7187.338742,-5329.482782,-8586.388927,-2298.286494
7187.339058,-5255.462188,-8660.409521,-1072.533697
7187.339374,-5033.400406,-9104.533087,-842.705048
7187.339691,-3849.070898,-9474.636058,-229.828649
7187.340007,-2368.659014,-9622.677246,0.000000
7187.340323,-814.226536,-9770.718434,1532.190996
7187.340639,-814.226536,-9770.718434,1455.581446
7187.340956,-222.061783,-9252.574275,2681.334243
7187.341272,-370.102971,-9474.636058,2374.896044
7187.341588,-592.164754,-9474.636058,1532.190996
7187.341905,-1628.453072,-9474.636058,306.438199
7187.342221,-2442.679609,-9104.533087,0.000000
7187.342537,-3404.947333,-9104.533087,-1225.752797
7187.342853,-3849.070898,-9030.512492,-306.438199
7187.343170,-4293.194464,-8364.327145,-459.657299
7187.343486,-4071.132681,-8808.450710,-689.485948
7187.343802,-4071.132681,-9474.636058,-689.485948
7187.344118,-3997.112087,-9474.636058,0.000000
7187.344435,-3478.967927,-9400.615463,306.438199
7187.344751,-2294.638420,-9474.636058,536.266849
7187.345067,-2368.659014,-8586.388927,1685.410096
7187.345383,-2442.679609,-9178.553681,2068.457845
7187.345700,-2146.597232,-9030.512492,1608.800546
7187.346016,-1924.535449,-9104.533087,229.828649
7187.346332,-2368.659014,-8660.409521,383.047749
7187.346649,-3108.864956,-8438.347739,536.266849
7187.346965,-3182.885551,-8364.327145,459.657299
7187.347281,-3552.988522,-8660.409521,-459.657299
7187.347597,-3404.947333,-8290.306550,-842.705048
7187.347914,-3701.029710,-8586.388927,-1149.143247
7187.348230,-3923.091493,-8660.409521,0.000000
7187.348546,-3627.009116,-9104.533087,0.000000
7187.348862,-3330.926739,-9474.636058,306.438199
7187.349179,-3108.864956,-9400.615463,766.095498
7187.349495,-3182.885551,-9548.656652,995.924147
7187.349811,-2812.782580,-9400.615463,995.924147
7187.350127,-2664.741391,-9326.594869,766.095498
7187.350444,-2812.782580,-9104.533087,842.705048
7187.350760,-3404.947333,-8882.471304,919.314598
7187.351076,-3404.947333,-8808.450710,459.657299
7187.351392,-3552.988522,-8512.368333,0.000000
7187.351709,-3701.029710,-8660.409521,0.000000
7187.352025,-3849.070898,-8660.409521,76.609550
7187.352341,-3923.091493,-8290.306550,459.657299
7187.352658,-4145.153275,-8290.306550,76.609550
7187.352974,-3701.029710,-8586.388927,153.219100
7187.353290,-3627.009116,-8882.471304,153.219100
7187.353606,-3923.091493,-9030.512492,383.047749
7187.353923,-3849.070898,-8882.471304,612.876398
7187.354239,-3849.070898,-8586.388927,689.485948
7187.354555,-3627.009116,-8512.368333,76.609550
7187.354871,-3849.070898,-8956.491898,0.000000
7187.355188,-3404.947333,-8438.347739,76.609550
7187.355504,-3627.009116,-8660.409521,229.828649
7187.355820,-3627.009116,-8216.285956,229.828649
7187.356136,-3404.947333,-8956.491898,0.000000
7187.356453,-3256.906145,-8364.327145,0.000000
7187.356769,-2738.761985,-8734.430116,0.000000
7187.357085,-3478.967927,-8586.388927,0.000000
7187.357402,-2516.700203,-8660.409521,459.657299
7187.357718,-2886.803174,-9104.533087,0.000000
7187.358034,-2738.761985,-9400.615463,383.047749
7187.358350,-2886.803174,-9548.656652,383.047749
7187.358667,-2516.700203,-9696.697840,459.657299
7187.358983,-2590.720797,-9844.739029,383.047749
7187.359299,-2220.617826,-9474.636058,1072.533697
7187.359615,-2664.741391,-9696.697840,689.485948
7187.359932,-2442.679609,-9252.574275,229.828649
7187.360248,-2738.761985,-9326.594869,842.705048
7187.360564,-2960.823768,-9474.636058,0.000000
7187.360880,-2516.700203,-8660.409521,306.438199
7187.361197,-2886.803174,-9104.533087,0.000000
7187.361513,-3108.864956,-8290.306550,0.000000
7187.361829,-2960.823768,-8882.471304,-536.266849
7187.362145,-2960.823768,-9030.512492,-153.219100
7187.362462,-2886.803174,-8512.368333,-306.438199
7187.362778,-3701.029710,-9104.533087,153.219100
7187.363094,-3330.926739,-8956.491898,766.095498
7187.363411,-2886.803174,-9252.574275,76.609550
7187.363727,-3256.906145,-9326.594869,842.705048
7187.364043,-2442.679609,-9548.656652,842.705048
7187.364359,-2812.782580,-8882.471304,842.705048
7187.364676,-3034.844362,-8808.450710,919.314598
7187.364992,-3034.844362,-8734.430116,689.485948
7187.365308,-3330.926739,-9030.512492,229.828649
7187.365624,-3849.070898,-8660.409521,459.657299
7187.365941,-3997.112087,-8808.450710,0.000000
7187.366257,-3775.050304,-9252.574275,-459.657299
7187.366573,-3701.029710,-9030.512492,-383.047749
7187.366889,-4145.153275,-8364.327145,229.828649
7187.367206,-3997.112087,-8660.409521,306.438199
7187.367522,-3404.947333,-9178.553681,229.828649
7187.367838,-2886.803174,-9326.594869,-153.219100
7187.368155,-3478.967927,-8290.306550,229.828649
7187.368471,-3997.112087,-8734.430116,766.095498
7187.368787,-3775.050304,-9548.656652,612.876398
7187.369103,-2294.638420,-8956.491898,-459.657299
7187.369420,-2442.679609,-8364.327145,306.438199
7187.369736,-4441.235652,-8290.306550,1149.143247
7187.370052,-5329.482782,-8364.327145,1532.190996
7187.370368,-3404.947333,-9178.553681,-995.924147
7187.370685,-1850.514855,-9326.594869,-1762.019645
7187.371001,-2664.741391,-8956.491898,-383.047749
7187.371317,-4737.318029,-7846.182985,1838.629195
7187.371633,-5403.503377,-8438.347739,919.314598
7187.371950,-3627.009116,-9104.533087,-153.219100
7187.372266,-2516.700203,-9474.636058,-1608.800546
7187.372582,-3256.906145,-9030.512492,0.000000
7187.372899,-2886.803174,-8808.450710,919.314598
7187.373215,-1998.556043,-8438.347739,1762.019645
7187.373531,-2146.597232,-8586.388927,919.314598
7187.373847,-4145.153275,-8882.471304,153.219100
7187.374164,-5033.400406,-9252.574275,0.000000
7187.374480,-4219.173869,-9622.677246,-1072.533697
7187.374796,-2294.638420,-9696.697840,-1455.581446
7187.375112,-2072.576638,-9030.512492,459.657299
7187.375429,-2886.803174,-7772.162391,2757.943793
7187.375745,-3330.926739,-8142.265362,3064.381992
7187.376061,-2960.823768,-8882.471304,689.485948
7187.376377,-2072.576638,-9178.553681,-1302.362347
7187.376694,-2738.761985,-9474.636058,-1302.362347
7187.377010,-3627.009116,-8438.347739,0.000000
7187.377326,-3775.050304,-8216.285956,995.924147
7187.377642,-3552.988522,-9104.533087,383.047749
7187.377959,-3330.926739,-9622.677246,-459.657299
7187.378275,-3256.906145,-9474.636058,-1072.533697
7187.378591,-3997.112087,-8956.491898,-459.657299
7187.378908,-2072.576638,-9326.594869,842.705048
7187.379224,-1776.494261,-8512.368333,1685.410096
7187.379540,-1628.453072,-8660.409521,2528.115143
7187.379856,-2812.782580,-9030.512492,2757.943793
7187.380173,-2664.741391,-9178.553681,1455.581446
7187.380489,-2442.679609,-9178.553681,-536.266849
7187.380805,-3627.009116,-8216.285956,-536.266849
7187.381121,-4885.359217,-8068.244768,383.047749
7187.381438,-5699.585753,-7624.121203,0.000000
7187.381754,-5033.400406,-8882.471304,-995.924147
7187.382070,-4885.359217,-9326.594869,-1532.190996
7187.382386,-4737.318029,-9326.594869,-1302.362347
7187.382703,-4145.153275,-8660.409521,229.828649
7187.383019,-2368.659014,-8734.430116,1302.362347
7187.383335,-962.267725,-8586.388927,689.485948
7187.383652,-1184.329507,-8364.327145,1762.019645
7187.383968,-2738.761985,-8734.430116,2374.896044
7187.384284,-3775.050304,-9104.533087,1378.971896
7187.384600,-3627.009116,-9548.656652,-842.705048
7187.384917,-3923.091493,-9770.718434,-1762.019645
7187.385233,-3404.947333,-9770.718434,-1378.971896
7187.385549,-4219.173869,-9326.594869,-153.219100
7187.385865,-2442.679609,-9252.574275,842.705048
7187.386182,-1702.473667,-8660.409521,306.438199
7187.386498,-3256.906145,-8808.450710,919.314598
7187.386814,-4959.379811,-8660.409521,1225.752797
7187.387130,-4071.132681,-9030.512492,0.000000
7187.387447,-2220.617826,-9326.594869,-1378.971896
7187.387763,-1258.350101,-8734.430116,0.000000
7187.388079,-3849.070898,-7698.141797,2145.067394
7187.388396,-5255.462188,-7254.018232,2834.553343
7187.388712,-4515.256246,-8290.306550,229.828649
7187.389028,-2886.803174,-9992.780217,-2221.676944
7187.389344,-2960.823768,-9622.677246,-3140.991542
7187.389661,-4293.194464,-8438.347739,153.219100
7187.389977,-4441.235652,-8438.347739,2068.457845
7187.390293,-3034.844362,-9252.574275,1762.019645
7187.390609,-2072.576638,-10362.883188,153.219100
7187.390926,-2516.700203,-8882.471304,536.266849
7187.391242,-3849.070898,-8512.368333,612.876398
7187.391558,-2590.720797,-8586.388927,459.657299
7187.391874,-1110.308913,-8808.450710,-153.219100
7187.392191,-2146.597232,-8364.327145,995.924147
7187.392507,-4145.153275,-8808.450710,1302.362347
7187.392823,-4663.297435,-8808.450710,536.266849
7187.393139,-3256.906145,-9252.574275,-1838.629195
7187.393456,-2220.617826,-8734.430116,-2451.505594
7187.393772,-3478.967927,-8734.430116,76.609550
7187.394088,-4663.297435,-8660.409521,1991.848295
7187.394405,-3182.885551,-9178.553681,1608.800546
7187.394721,-1924.535449,-9992.780217,306.438199
7187.395037,-1998.556043,-9474.636058,536.266849
7187.395353,-3404.947333,-8956.491898,995.924147
7187.395670,-2812.782580,-8512.368333,1072.533697
7187.395986,-2368.659014,-8364.327145,919.314598
7187.396302,-2738.761985,-8808.450710,0.000000
7187.396618,-4219.173869,-8290.306550,459.657299
7187.396935,-4589.276840,-8512.368333,0.000000
7187.397251,-4293.194464,-8882.471304,-1378.971896
7187.397567,-3627.009116,-8808.450710,-1685.410096
